time,seconds_elapsed,z,y,x
1707603398600200700,0.03620068359375,0,0,0
1707603398619094800,0.0550947265625,0.15040254592895508,0.08227062225341797,-0.11290508508682251
1707603398637988900,0.07398876953125,0.053121089935302734,0.053566932678222656,-0.04330909252166748
1707603398656883000,0.092883056640625,-0.5381722450256348,-0.10317420959472656,0.09721487760543823
1707603398675777000,0.111777099609375,-0.7827038764953613,-0.11798572540283203,0.20410138368606567
1707603398694671000,0.130671142578125,-0.6101861000061035,0.03178119659423828,0.018296480178833008
1707603398713565200,0.149565185546875,-0.1430039405822754,0.09731292724609375,-0.03671371936798096
1707603398732459300,0.168459228515625,0.24434900283813477,0.13098430633544922,-0.009232699871063232
1707603398751353300,0.187353271484375,0.4822068214416504,-0.008400917053222656,0.1938527226448059
1707603398770247200,0.2062470703125,0.5622086524963379,-0.021770477294921875,-0.03744548559188843
1707603398789141200,0.225141357421875,0.6023144721984863,-0.023262977600097656,-0.09507405757904053
1707603398808035300,0.244035400390625,0.5528774261474609,-0.3800067901611328,-0.2328762412071228
1707603398826929400,0.262929443359375,0.9201111793518066,-0.1504659652709961,-0.03902238607406616
1707603398845823500,0.281823486328125,-0.15095996856689453,-0.06285572052001953,0.03508192300796509
1707603398864717600,0.300717529296875,-0.7830381393432617,-0.02367877960205078,-0.08166354894638062
1707603398883611600,0.319611572265625,-0.7245659828186035,-0.047644615173339844,-0.1072089672088623
1707603398902505500,0.33850537109375,-0.2542848587036133,-0.42919445037841797,-0.04522049427032471
1707603398921399600,0.357399658203125,0.2885141372680664,0.1009979248046875,-0.42147091031074524
1707603398940293600,0.376293701171875,0.15432214736938477,0.5817413330078125,-0.4577478766441345
1707603398959187700,0.395187744140625,0.5847949981689453,0.42324256896972656,-0.24544131755828857
1707603398978081800,0.414081787109375,-1.0770783424377441,0.037136077880859375,0.7187321782112122
1707603398996975900,0.432975830078125,-0.20168447494506836,0.14794445037841797,-0.5688745379447937
1707603399015870000,0.451869873046875,0.2841620445251465,0.04929351806640625,-0.053283095359802246
1707603399034763800,0.470763671875,0.7536320686340332,-0.2945528030395508,0.14560562372207642
1707603399053657900,0.489657958984375,0.5742464065551758,-0.054668426513671875,0.28222715854644775
1707603399072552000,0.508552001953125,-0.705686092376709,0.2247943878173828,0.3601924777030945
1707603399091446000,0.527446044921875,-0.779116153717041,0.4543466567993164,-0.11203968524932861
1707603399110340000,0.546340087890625,0.24300146102905273,0.46219825744628906,-0.04515564441680908
1707603399129234200,0.565234130859375,0.39228200912475586,-0.09526824951171875,0.2715719938278198
1707603399148128000,0.5841279296875,0.1375408172607422,-0.3369603157043457,0.1638864278793335
1707603399167022000,0.60302197265625,-0.5855288505554199,0.016005516052246094,0.006540775299072266
1707603399185916200,0.621916259765625,-0.9283766746520996,0.15987300872802734,-0.08243262767791748
1707603399204810200,0.640810302734375,-1.0806121826171875,-0.08450126647949219,-0.012500524520874023
1707603399223704300,0.659704345703125,-1.345123291015625,-0.20015811920166016,-0.33401763439178467
1707603399242598400,0.678598388671875,-1.4474434852600098,0.13173198699951172,-0.09091460704803467
1707603399261492500,0.697492431640625,-0.6707520484924316,0.42171287536621094,-0.12323760986328125
1707603399280386600,0.716386474609375,-0.08175230026245117,0.3991522789001465,-0.25076985359191895
1707603399299280600,0.73528076171875,1.2131009101867676,0.2039041519165039,0.2120192050933838
1707603399318174500,0.754174560546875,1.395888328552246,0.5445575714111328,1.1257693767547607
1707603399337068500,0.773068603515625,1.956343650817871,0.2476816177368164,1.7042107582092285
1707603399355962600,0.791962646484375,2.404116153717041,-0.6500592231750488,2.5464348793029785
1707603399374856700,0.810856689453125,3.027230739593506,0.05832481384277344,3.7812490463256836
1707603399393750800,0.829750732421875,1.0469064712524414,0.007321834564208984,2.4417858123779297
1707603399412644900,0.848644775390625,3.7364091873168945,-1.5515251159667969,-0.14884614944458008
1707603399431539000,0.8675390625,5.921238899230957,-2.3578720092773438,0.2781181335449219
1707603399450433000,0.88643310546875,4.751805305480957,-3.024427890777588,-2.592987537384033
1707603399469326800,0.905326904296875,4.1512603759765625,-3.4808058738708496,-3.4883031845092773
1707603399488221000,0.924220947265625,3.116791248321533,-3.8762741088867188,-2.9397788047790527
1707603399507115000,0.943114990234375,1.417109727859497,-3.585263729095459,-2.702969789505005
1707603399526009000,0.962009033203125,-0.02534615993499756,-4.1377105712890625,-2.873378038406372
1707603399544903200,0.980903076171875,0.5005122423171997,-3.7177562713623047,-1.9662446975708008
1707603399563797200,0.99979736328125,2.3800339698791504,-1.274724006652832,1.847301959991455
1707603399582691300,1.01869140625,0.009776771068572998,2.789745330810547,7.430166244506836
1707603399601585400,1.03758544921875,-7.937272548675537,5.945564270019531,6.677116394042969
1707603399620479500,1.0564794921875,-14.094549179077148,7.281020164489746,3.868722438812256
1707603399639373300,1.075373291015625,-16.268413543701172,5.552757263183594,2.628845691680908
1707603399658267400,1.094267333984375,-14.311344146728516,3.469080924987793,1.45890474319458
1707603399677161500,1.113161376953125,-9.866104125976562,-0.22091960906982422,1.362403154373169
1707603399696055600,1.1320556640625,-5.233712196350098,-4.7576398849487305,0.23526859283447266
1707603399714949600,1.15094970703125,0.040791094303131104,-9.413783073425293,-1.5149346590042114
1707603399733843700,1.16984375,8.973264694213867,-10.292549133300781,-2.1994991302490234
1707603399752737800,1.18873779296875,14.310853958129883,-9.83652114868164,-0.726834774017334
1707603399771631900,1.2076318359375,13.960339546203613,-8.227588653564453,-1.015380859375
1707603399790526000,1.22652587890625,8.387325286865234,-7.965415000915527,-3.460714340209961
1707603399809419800,1.245419677734375,3.183699607849121,-5.82558536529541,-3.1043004989624023
1707603399828313900,1.26431396484375,-0.10059067606925964,-0.8140497207641602,-1.5047767162322998
1707603399847208000,1.2832080078125,-3.035900115966797,2.9205474853515625,1.9112727642059326
1707603399866102000,1.30210205078125,-6.945044994354248,6.987645149230957,3.291736125946045
1707603399884996000,1.32099609375,-8.236780166625977,9.269104957580566,4.336881637573242
1707603399903890200,1.33989013671875,-8.91712760925293,8.270241737365723,5.119141578674316
1707603399922784300,1.3587841796875,-7.9231343269348145,5.240657806396484,5.291425704956055
1707603399941678300,1.37767822265625,-5.871862411499023,1.5499849319458008,6.083351135253906
1707603399960572200,1.396572265625,-3.620563507080078,-1.1009082794189453,4.964318752288818
1707603399979466200,1.41546630859375,1.1991028785705566,-2.0743541717529297,2.699007987976074
1707603399998360300,1.4343603515625,0.8946774005889893,-5.215198516845703,-0.0070694684982299805
1707603400017254400,1.45325439453125,3.718648910522461,-7.806407928466797,-2.5690548419952393
1707603400036148500,1.4721484375,6.661499500274658,-8.139167785644531,-3.3116302490234375
1707603400055042600,1.49104248046875,7.418215751647949,-9.087456703186035,-4.221313953399658
1707603400073936600,1.5099365234375,6.242701053619385,-9.090293884277344,-3.7947850227355957
1707603400092830700,1.528830810546875,4.1466193199157715,-8.102405548095703,-2.6676645278930664
1707603400111724800,1.547724853515625,2.6203644275665283,-5.704422950744629,-0.7855511903762817
1707603400130618600,1.56661865234375,0.529442310333252,-2.4535698890686035,0.8785250186920166
1707603400149512700,1.5855126953125,-2.174973249435425,1.3341846466064453,1.583179235458374
1707603400168406800,1.60440673828125,-4.600006103515625,4.678112983703613,0.9685060381889343
1707603400187300900,1.62330078125,-6.825553894042969,7.95328426361084,2.3677918910980225
1707603400206195000,1.64219482421875,-9.889511108398438,8.882294654846191,-0.8984296321868896
1707603400225089000,1.661089111328125,-10.029643058776855,9.96816635131836,-4.341721534729004
1707603400243983000,1.679983154296875,-9.159064292907715,7.611883163452148,-3.700524091720581
1707603400262877200,1.698877197265625,-7.097265243530273,3.8215694427490234,-0.800349235534668
1707603400281771300,1.717771240234375,-4.734530448913574,-0.7454605102539062,3.6356301307678223
1707603400300665000,1.7366650390625,-2.5609257221221924,-5.457682132720947,4.837372779846191
1707603400319559200,1.75555908203125,-0.41209685802459717,-9.259078979492188,2.773709774017334
1707603400338453200,1.774453369140625,2.1295547485351562,-11.083539009094238,1.5591022968292236
1707603400357347300,1.793347412109375,2.8843586444854736,-10.997283935546875,0.03640127182006836
1707603400376241400,1.812241455078125,6.050114631652832,-9.124099731445312,-1.0520544052124023
1707603400395135500,1.831135498046875,12.769641876220703,-5.414880275726318,-0.918057918548584
1707603400414029600,1.850029541015625,14.768314361572266,-2.803891181945801,0.4627799987792969
1707603400432923600,1.868923583984375,6.378091335296631,-4.442273139953613,0.8352713584899902
1707603400451817500,1.8878173828125,-4.240093231201172,-3.615542411804199,0.0010228157043457031
1707603400470711600,1.906711669921875,-5.436521530151367,1.1725044250488281,-3.2813525199890137
1707603400489605600,1.925605712890625,-5.598233699798584,5.33489990234375,-4.808956146240234
1707603400508499700,1.944499755859375,-7.658805847167969,9.027181625366211,-3.4549317359924316
1707603400527393800,1.963393798828125,-8.40938949584961,9.367769241333008,-2.0467019081115723
1707603400546287900,1.982287841796875,-6.159610748291016,7.342278480529785,-1.563662052154541
1707603400565182000,2.001181884765625,-3.8082101345062256,4.101518154144287,-1.5111083984375
1707603400584076000,2.020075927734375,-2.4066426753997803,1.5096712112426758,-0.0850682258605957
1707603400602970000,2.03897021484375,-0.8854801654815674,-1.7010793685913086,2.086920738220215
1707603400621864000,2.057864013671875,2.004216194152832,-4.696037769317627,3.078155517578125
1707603400640758000,2.076758056640625,6.115113258361816,-8.131282806396484,3.9045562744140625
1707603400659652000,2.095652099609375,8.614521026611328,-11.440763473510742,4.471673011779785
1707603400678546200,2.114546142578125,8.005204200744629,-11.50601577758789,5.4316534996032715
1707603400697440300,2.133440185546875,6.272424697875977,-9.854015350341797,5.717726707458496
1707603400716334300,2.152334228515625,2.7820611000061035,-8.31458854675293,1.9487876892089844
1707603400735228400,2.171228515625,-1.200229525566101,-6.17094612121582,-1.8075857162475586
1707603400754122500,2.19012255859375,-4.02030086517334,-1.3813035488128662,-4.455063819885254
1707603400773016600,2.2090166015625,-8.777233123779297,4.3365302085876465,-5.423791885375977
1707603400791910400,2.227910400390625,-12.188467025756836,9.687193870544434,-5.962930679321289
1707603400810804500,2.246804443359375,-14.460883140563965,12.474505424499512,-5.934999465942383
1707603400829698600,2.265698486328125,-14.41336727142334,11.637160301208496,-4.96258544921875
1707603400848592600,2.284592529296875,-12.790319442749023,8.115039825439453,-3.250716209411621
1707603400867486700,2.30348681640625,-9.60976791381836,3.575627326965332,-1.6600427627563477
1707603400886380800,2.322380859375,-7.118232727050781,-1.5820527076721191,-0.0786428451538086
1707603400905275000,2.34127490234375,-4.482166767120361,-7.530883312225342,0.7458181381225586
1707603400924169000,2.3601689453125,0.32767730951309204,-12.182456016540527,1.0606436729431152
1707603400943063000,2.37906298828125,5.148335933685303,-14.169288635253906,1.858377456665039
1707603400961956900,2.397956787109375,9.397436141967773,-13.811832427978516,3.8031013011932373
1707603400980851000,2.416850830078125,12.032553672790527,-12.000406265258789,4.962743759155273
1707603400999745000,2.4357451171875,10.336370468139648,-11.248558044433594,4.25815486907959
1707603401018639000,2.45463916015625,4.017175674438477,-11.740533828735352,2.6635594367980957
1707603401037533200,2.473533203125,-0.7700154781341553,-10.73354721069336,-1.222280502319336
1707603401056427300,2.49242724609375,-3.9578909873962402,-7.328879356384277,-4.449801445007324
1707603401075321300,2.5113212890625,-7.014392852783203,-1.8457132577896118,-6.005322456359863
1707603401094215400,2.53021533203125,-10.432829856872559,5.1464009284973145,-6.230646133422852
1707603401113109200,2.549109130859375,-13.7356538772583,11.185750007629395,-5.656961441040039
1707603401132003300,2.56800341796875,-14.894495010375977,13.615762710571289,-4.905519485473633
1707603401150897400,2.5868974609375,-12.27723503112793,12.038847923278809,-4.158262252807617
1707603401169791500,2.60579150390625,-8.678458213806152,8.184762954711914,-1.882777214050293
1707603401188685600,2.624685546875,-5.856910228729248,3.113485813140869,0.8852739334106445
1707603401207579600,2.64357958984375,-3.2099814414978027,-2.018171787261963,2.49432373046875
1707603401226473700,2.6624736328125,-0.5656366348266602,-6.265740871429443,2.859282970428467
1707603401245367800,2.681367919921875,2.2236454486846924,-9.846637725830078,2.211892604827881
1707603401264262000,2.700261962890625,5.791816711425781,-12.114349365234375,1.559671401977539
1707603401283155700,2.71915576171875,9.349912643432617,-12.298768997192383,1.5869016647338867
1707603401302049800,2.7380498046875,10.540271759033203,-12.053438186645508,2.277344226837158
1707603401320943900,2.75694384765625,8.508217811584473,-12.183866500854492,3.118086099624634
1707603401339838000,2.775837890625,4.510594367980957,-12.36960506439209,2.993941307067871
1707603401358732000,2.79473193359375,0.9716572761535645,-11.514726638793945,1.1721386909484863
1707603401377626000,2.813626220703125,-1.6254189014434814,-9.534423828125,-1.7210493087768555
1707603401396520200,2.832520263671875,-4.08293342590332,-5.298002243041992,-4.230730056762695
1707603401415414300,2.851414306640625,-7.839028358459473,1.232180118560791,-5.3711323738098145
1707603401434308400,2.870308349609375,-12.280477523803711,7.34940767288208,-4.238795280456543
1707603401453202200,2.8892021484375,-15.165388107299805,11.650396347045898,-2.646667957305908
1707603401472096300,2.90809619140625,-14.78348159790039,12.998037338256836,-1.1583471298217773
1707603401490990300,2.926990234375,-11.857004165649414,10.988883972167969,-0.6440062522888184
1707603401509884400,2.945884521484375,-8.121081352233887,7.0792741775512695,0.0061588287353515625
1707603401528778500,2.964778564453125,-5.50612735748291,2.5264272689819336,0.012146949768066406
1707603401547672600,2.983672607421875,-4.22608757019043,-1.740614891052246,-1.6962099075317383
1707603401566566700,3.002566650390625,-2.4135377407073975,-6.145005226135254,-3.080843687057495
1707603401585460700,3.021460693359375,0.32826387882232666,-9.49208927154541,-4.430840492248535
1707603401604354600,3.0403544921875,3.802497625350952,-11.200267791748047,-7.771487236022949
1707603401623248600,3.05924853515625,6.66898775100708,-11.843768119812012,-9.77350902557373
1707603401642142700,3.078142822265625,10.466962814331055,-12.29257869720459,-9.154909133911133
1707603401661036800,3.097036865234375,11.576993942260742,-9.026226043701172,-0.09236598014831543
1707603401679931000,3.115930908203125,9.04294490814209,-8.46329116821289,4.291921615600586
1707603401698825000,3.134824951171875,3.7456207275390625,-5.375135898590088,6.75782585144043
1707603401717719000,3.153718994140625,-2.249346971511841,-0.8932971954345703,5.549635887145996
1707603401736613000,3.172613037109375,-6.727538108825684,4.933428764343262,2.8239221572875977
1707603401755507200,3.191507080078125,-9.66150188446045,10.030756950378418,0.540759801864624
1707603401774401000,3.210401123046875,-11.632356643676758,10.470008850097656,1.9280624389648438
1707603401793295000,3.229295166015625,-13.029956817626953,7.52006721496582,4.557339668273926
1707603401812189200,3.248189208984375,-11.139911651611328,4.341374397277832,4.817313194274902
1707603401831083300,3.267083251953125,-9.231063842773438,-1.6634116172790527,2.09993839263916
1707603401849977300,3.285977294921875,-4.629670143127441,-5.937291145324707,-1.985686182975769
1707603401868871400,3.304871337890625,1.1969306468963623,-8.761054992675781,-4.7886481285095215
1707603401887765500,3.323765625,7.061398029327393,-11.375930786132812,-5.2046003341674805
1707603401906659600,3.34265966796875,12.573972702026367,-11.239384651184082,-4.996889591217041
1707603401925553700,3.3615537109375,14.475430488586426,-9.701861381530762,-6.474979400634766
1707603401944447500,3.380447509765625,11.371810913085938,-10.018595695495605,-7.280063152313232
1707603401963341600,3.399341552734375,5.782783508300781,-10.65803337097168,-3.4481568336486816
1707603401982235600,3.418235595703125,2.117027997970581,-5.331239223480225,3.7868683338165283
1707603402001129700,3.437129638671875,-3.146665573120117,1.7019109725952148,6.605677604675293
1707603402020023800,3.45602392578125,-8.33122730255127,7.785268783569336,5.544015884399414
1707603402038918000,3.47491796875,-12.249238967895508,11.017501831054688,2.2448880672454834
1707603402057812000,3.49381201171875,-13.694520950317383,11.107086181640625,1.4888339042663574
1707603402076706000,3.5127060546875,-13.648141860961914,8.953829765319824,3.1397414207458496
1707603402095600000,3.53160009765625,-11.575508117675781,4.602964401245117,3.394543170928955
1707603402114494200,3.550494140625,-8.421072006225586,-0.51019287109375,2.8432910442352295
1707603402133388300,3.56938818359375,-4.102667808532715,-4.733614444732666,-0.30252623558044434
1707603402152282000,3.5882822265625,-0.2855825424194336,-8.531248092651367,-4.451907634735107
1707603402171176200,3.60717626953125,4.4018425941467285,-11.316595077514648,-5.597670555114746
1707603402190070300,3.6260703125,10.17891788482666,-10.585455894470215,-3.410701036453247
1707603402208964400,3.64496435546875,13.283222198486328,-9.008768081665039,-4.346466064453125
1707603402227858400,3.6638583984375,11.351848602294922,-9.526668548583984,-6.373647689819336
1707603402246752500,3.68275244140625,7.06310510635376,-9.753740310668945,-3.250011920928955
1707603402265646600,3.701646484375,3.548877716064453,-5.799414157867432,6.13892936706543
1707603402284540700,3.720540771484375,-1.3375213146209717,1.3348941802978516,9.053023338317871
1707603402303434800,3.739434814453125,-6.824278831481934,7.81234073638916,7.215715408325195
1707603402322328600,3.75832861328125,-11.732608795166016,11.498024940490723,3.6388001441955566
1707603402341222700,3.77722265625,-14.218746185302734,11.61945629119873,1.790517807006836
1707603402360116700,3.79611669921875,-14.922296524047852,8.415148735046387,2.1202757358551025
1707603402379010800,3.8150107421875,-11.808564186096191,3.802424430847168,1.9275968074798584
1707603402397905000,3.83390478515625,-6.954987525939941,-0.7281656265258789,1.2190361022949219
1707603402416799000,3.852799072265625,-4.148072242736816,-6.549833297729492,-0.9802001118659973
1707603402435693000,3.871693115234375,0.8542934060096741,-10.45147705078125,-4.886686325073242
1707603402454587100,3.890587158203125,6.254263401031494,-11.156097412109375,-6.565602779388428
1707603402473481200,3.909481201171875,11.268994331359863,-10.88096809387207,-4.406541347503662
1707603402492375300,3.928375244140625,12.505099296569824,-10.894244194030762,-4.758776664733887
1707603402511269000,3.94726904296875,9.57606315612793,-11.218618392944336,-4.6957831382751465
1707603402530163200,3.9661630859375,5.788671970367432,-9.526360511779785,0.7580509185791016
1707603402549057300,3.985057373046875,2.202406167984009,-3.5750322341918945,5.532850742340088
1707603402567951400,4.003951416015625,-3.8801984786987305,3.5477724075317383,6.154322147369385
1707603402586845400,4.022845458984375,-9.109232902526855,11.210088729858398,3.769352912902832
1707603402605739500,4.041739501953125,-13.91357707977295,14.996133804321289,1.9531364440917969
1707603402624633600,4.060633544921875,-16.72122573852539,13.873600006103516,2.053961753845215
1707603402643527700,4.079527587890625,-16.322341918945312,8.212915420532227,3.355923652648926
1707603402662421800,4.098421875,-13.550762176513672,0.13267230987548828,4.6536641120910645
1707603402681315800,4.11731591796875,-7.1410064697265625,-6.454429626464844,1.2494480609893799
1707603402700209700,4.136209716796875,-1.2730821371078491,-10.368314743041992,-5.854798316955566
1707603402719103700,4.155103759765625,4.93039608001709,-11.72433090209961,-9.096551895141602
1707603402737997800,4.173997802734375,10.302938461303711,-10.357915878295898,-8.043299674987793
1707603402756892000,4.192891845703125,11.82448959350586,-10.239537239074707,-7.757500648498535
1707603402775786000,4.211785888671875,9.230765342712402,-11.956151962280273,-5.66414737701416
1707603402794680000,4.23068017578125,7.725852966308594,-10.839914321899414,0.5358855724334717
1707603402813574100,4.24957421875,3.285902976989746,-3.968142032623291,5.8365020751953125
1707603402832468200,4.26846826171875,-5.980134010314941,4.997633934020996,0.9813809394836426
1707603402851362300,4.2873623046875,-11.188100814819336,8.915811538696289,-2.5147335529327393
1707603402870256400,4.30625634765625,-12.59066104888916,3.4794716835021973,2.050295829772949
1707603402889150500,4.325150390625,-9.033717155456543,5.792341232299805,14.482065200805664
1707603402908044500,4.34404443359375,-2.784181594848633,7.1691508293151855,20.02579689025879
1707603402926938400,4.3629384765625,-2.9481983184814453,2.0755910873413086,13.053885459899902
1707603402945832400,4.38183251953125,-5.235989570617676,-3.884152412414551,4.377635955810547
1707603402964726500,4.4007265625,-3.7527668476104736,-7.958509922027588,-4.773996353149414
1707603402983620600,4.41962060546875,1.634598970413208,-10.017433166503906,-11.908987045288086
1707603403002514700,4.4385146484375,6.548603057861328,-9.082287788391113,-14.857523918151855
1707603403021408800,4.45740869140625,10.430150985717773,-7.712055683135986,-10.698664665222168
1707603403040302800,4.476302734375,8.029056549072266,-7.856189727783203,-7.489859580993652
1707603403059197000,4.495197021484375,2.527202606201172,-8.347734451293945,-8.859819412231445
1707603403078091000,4.514091064453125,-0.6032483577728271,-7.167438983917236,-8.600454330444336
1707603403096984800,4.53298486328125,-1.56715989112854,-5.736018180847168,-2.9731967449188232
1707603403115879000,4.55187890625,-0.6631407737731934,-2.9682230949401855,4.315371513366699
1707603403134773000,4.57077294921875,1.1585688591003418,2.3980913162231445,11.983595848083496
1707603403153667000,4.5896669921875,0.8291404247283936,6.005961894989014,14.542524337768555
1707603403172561200,4.60856103515625,-2.9232404232025146,6.114754676818848,12.756254196166992
1707603403191455200,4.627455322265625,-5.174891471862793,6.624752521514893,9.17733097076416
1707603403210349300,4.646349365234375,-6.160651683807373,6.826657295227051,7.494205474853516
1707603403229243400,4.665243408203125,-6.202421188354492,3.766622543334961,7.3850417137146
1707603403248137500,4.684137451171875,-6.133378505706787,-0.22094249725341797,5.406816482543945
1707603403267031600,4.703031494140625,-5.051214218139648,-4.0637993812561035,1.7854175567626953
1707603403285925600,4.721925537109375,-2.7261884212493896,-6.624634742736816,-4.349514961242676
1707603403304819500,4.7408193359375,-0.24393336474895477,-7.229239463806152,-11.753753662109375
1707603403323713500,4.759713623046875,1.9128031730651855,-6.0745038986206055,-14.597005844116211
1707603403342607600,4.778607666015625,3.699357509613037,-6.501321315765381,-11.322794914245605
1707603403361501700,4.797501708984375,4.149742126464844,-8.072295188903809,-7.855923652648926
1707603403380395800,4.816395751953125,4.035484790802002,-9.457491874694824,-4.947615146636963
1707603403399289900,4.835289794921875,3.958540916442871,-9.446950912475586,-2.6584525108337402
1707603403418184000,4.854183837890625,4.857883930206299,-4.942047119140625,3.587000846862793
1707603403437078000,4.873078125,3.8642425537109375,0.40223169326782227,11.65287971496582
1707603403455972000,4.89197216796875,-0.20648740231990814,3.6000418663024902,15.896120071411133
1707603403474866200,4.9108662109375,-3.5083625316619873,5.629356861114502,15.486380577087402
1707603403493760300,4.92976025390625,-6.837810039520264,6.943770885467529,14.33279800415039
1707603403512654300,4.948654296875,-9.516607284545898,6.210911273956299,10.17243766784668
1707603403531548400,4.96754833984375,-10.003795623779297,3.5880045890808105,4.323511600494385
1707603403550442200,4.986442138671875,-8.62193775177002,-0.34160852432250977,0.37956809997558594
1707603403569336300,5.00533642578125,-6.8748698234558105,-5.097681522369385,-4.673421382904053
1707603403588230400,5.02423046875,-3.4532508850097656,-8.695621490478516,-12.395299911499023
1707603403607124500,5.04312451171875,2.6136868000030518,-9.37885856628418,-17.382644653320312
1707603403626018600,5.0620185546875,8.696771621704102,-7.651693344116211,-14.260085105895996
1707603403644912600,5.08091259765625,9.275472640991211,-7.416832447052002,-8.696971893310547
1707603403663806700,5.099806640625,4.831982612609863,-9.14236068725586,-6.922881126403809
1707603403682700800,5.11870068359375,2.2126355171203613,-7.27531099319458,-2.270249843597412
1707603403701595000,5.137594970703125,2.013424873352051,-1.1973283290863037,6.985217094421387
1707603403720583200,5.156583251953125,-0.7780385613441467,5.007655143737793,11.900707244873047
1707603403739382800,5.1753828125,-5.511195182800293,8.081209182739258,12.819045066833496
1707603403758276900,5.19427685546875,-8.384952545166016,8.253935813903809,12.68287467956543
1707603403777171000,5.2131708984375,-8.50839614868164,6.064249515533447,11.028246879577637
1707603403796065000,5.23206494140625,-5.622535705566406,1.5688047409057617,11.627035140991211
1707603403814959000,5.250958984375,-1.7198171615600586,-2.92488956451416,10.20557975769043
1707603403833853200,5.269853271484375,0.48866206407546997,-6.975776672363281,6.449776649475098
1707603403852747300,5.288747314453125,1.1779178380966187,-10.103290557861328,1.6227946281433105
1707603403871641300,5.307641357421875,1.7808952331542969,-11.366903305053711,-2.8057007789611816
1707603403890535400,5.326535400390625,3.366854667663574,-10.928206443786621,-6.362707614898682
1707603403909429500,5.345429443359375,4.623380184173584,-9.053794860839844,-10.282118797302246
1707603403928323600,5.364323486328125,5.387332916259766,-7.062076091766357,-12.498476028442383
1707603403947217700,5.3832177734375,4.62880277633667,-5.5367960929870605,-10.942188262939453
1707603403966111700,5.40211181640625,2.890575647354126,-4.628464698791504,-7.003676414489746
1707603403985005800,5.421005859375,0.5523632168769836,-1.8945035934448242,-2.7823779582977295
1707603404003900000,5.43989990234375,-2.044978618621826,2.0586471557617188,2.002251625061035
1707603404022793700,5.458793701171875,-4.697203159332275,5.247415065765381,5.88681173324585
1707603404041687800,5.477687744140625,-6.776208400726318,7.155478477478027,10.149815559387207
1707603404060582000,5.496581787109375,-7.522253513336182,8.333768844604492,13.138507843017578
1707603404079476000,5.51547607421875,-7.92383337020874,6.1399102210998535,12.925719261169434
1707603404098370000,5.5343701171875,-7.584557056427002,1.3915777206420898,8.78812026977539
1707603404117264100,5.55326416015625,-5.800826072692871,-3.469621181488037,1.4442877769470215
1707603404136158200,5.572158203125,-3.5152504444122314,-7.689697742462158,-6.758038520812988
1707603404155052300,5.59105224609375,0.642066478729248,-8.873008728027344,-13.06930923461914
1707603404173946400,5.6099462890625,6.269730567932129,-6.81525182723999,-13.480241775512695
1707603404192840400,5.62884033203125,8.979331016540527,-6.31370735168457,-10.131889343261719
1707603404211734500,5.647734619140625,7.689638137817383,-6.601572036743164,-8.11686897277832
1707603404230628600,5.666628662109375,4.397394180297852,-6.75187349319458,-6.707355976104736
1707603404249522700,5.685522705078125,2.538191318511963,-5.06737756729126,-2.938282012939453
1707603404268416800,5.704416748046875,2.208843946456909,-1.1820111274719238,4.014740943908691
1707603404287310800,5.723310791015625,1.787440299987793,3.13425874710083,10.06775951385498
1707603404306204700,5.74220458984375,-0.444882869720459,6.028328895568848,13.519604682922363
1707603404325098800,5.7610986328125,-3.0960676670074463,6.328002452850342,15.046686172485352
1707603404343992800,5.779992919921875,-4.845873832702637,4.636274337768555,11.490214347839355
1707603404362887000,5.798886962890625,-5.05857515335083,1.8419733047485352,10.168354988098145
1707603404381781000,5.817781005859375,-4.478576183319092,-2.6022682189941406,8.243998527526855
1707603404400675000,5.836675048828125,-3.656935214996338,-6.84519624710083,4.428574562072754
1707603404419569200,5.855569091796875,-2.527297258377075,-9.579242706298828,1.4473357200622559
1707603404438463200,5.874463134765625,2.1051130294799805,-9.852310180664062,-2.6425724029541016
1707603404457357300,5.893357421875,3.4169445037841797,-7.196144104003906,-7.500332832336426
1707603404476251400,5.91225146484375,3.769773006439209,-5.672375202178955,-11.823989868164062
1707603404495145500,5.9311455078125,4.980142116546631,-7.133139610290527,-12.324222564697266
1707603404514039600,5.95003955078125,5.185455322265625,-8.175539016723633,-9.283028602600098
1707603404532933600,5.96893359375,4.644035816192627,-8.050804138183594,-6.216919422149658
1707603404551827500,5.987827392578125,4.234315872192383,-5.793933868408203,-1.6347804069519043
1707603404570721500,6.006721435546875,2.7379724979400635,-2.0417251586914062,2.74570894241333
1707603404589615600,6.02561572265625,0.1932915300130844,1.6165432929992676,6.2558722496032715
1707603404608509700,6.044509765625,-1.720352053642273,3.205772876739502,9.27513599395752
1707603404627403800,6.06340380859375,-2.9266693592071533,4.247910022735596,13.564661979675293
1707603404646297900,6.0822978515625,-3.7856013774871826,4.822338581085205,16.040233612060547
1707603404665192000,6.10119189453125,-5.3819804191589355,2.8166308403015137,13.06754207611084
1707603404684086000,6.1200859375,-5.108423233032227,0.23683452606201172,8.218323707580566
1707603404702980000,6.13897998046875,-3.676081895828247,-2.4059810638427734,5.406496047973633
1707603404721874200,6.157874267578125,-1.8783962726593018,-4.87472677230835,4.379923343658447
1707603404740768000,6.17676806640625,0.08698546886444092,-7.4800896644592285,3.477060317993164
1707603404759662000,6.195662109375,1.5854195356369019,-9.649563789367676,2.175334930419922
1707603404778556400,6.214556396484375,2.0805821418762207,-11.533123016357422,0.7508692741394043
1707603404797450500,6.233450439453125,2.6615958213806152,-10.90349006652832,-1.0913300514221191
1707603404816344300,6.25234423828125,4.1441168785095215,-8.175491333007812,-4.548365592956543
1707603404835238400,6.27123828125,4.8692474365234375,-4.838592052459717,-8.121335983276367
1707603404854132500,6.290132568359375,4.8902201652526855,-1.8349566459655762,-11.049784660339355
1707603404873026600,6.309026611328125,4.600738048553467,0.7068710327148438,-12.539103507995605
1707603404891920600,6.327920654296875,2.218745231628418,1.4212779998779297,-11.420772552490234
1707603404910814700,6.346814697265625,-1.460416555404663,1.5989913940429688,-7.191597938537598
1707603404929708800,6.365708740234375,-4.115176677703857,0.9520444869995117,-3.701378345489502
1707603404948603000,6.384602783203125,-4.772014141082764,-0.8704910278320312,-0.34200477600097656
1707603404967497000,6.4034970703125,-3.0200047492980957,-2.1933445930480957,3.8818492889404297
1707603404986391000,6.42239111328125,-0.42551320791244507,-3.1060705184936523,5.8274383544921875
1707603405005285000,6.44128515625,2.9308810234069824,-3.4825801849365234,7.382777214050293
1707603405024179000,6.460178955078125,5.585365295410156,-3.338834285736084,4.865763187408447
1707603405043073000,6.479072998046875,5.525718688964844,-3.012096881866455,-2.4113144874572754
1707603405061967000,6.497967041015625,4.910693168640137,-2.354539394378662,-7.596887111663818
1707603405080861200,6.516861083984375,3.4718849658966064,-2.874324321746826,-7.87440299987793
1707603405099755300,6.53575537109375,2.1443047523498535,-3.360286235809326,-5.443215370178223
1707603405118649300,6.5546494140625,1.4538507461547852,-2.4185280799865723,-0.034986019134521484
1707603405137543400,6.57354345703125,0.6999779343605042,-1.3252754211425781,5.033162593841553
1707603405156437500,6.5924375,-1.0526270866394043,-0.4949765205383301,7.660689353942871
1707603405175331600,6.61133154296875,-2.2683722972869873,0.7429547309875488,8.060098648071289
1707603405194225700,6.6302255859375,-3.317871570587158,2.137014389038086,8.011058807373047
1707603405213119700,6.64911962890625,-5.175848960876465,1.7599220275878906,6.580245018005371
1707603405232013800,6.668013916015625,-4.973417282104492,0.7583732604980469,4.59718132019043
1707603405250908000,6.686907958984375,-3.647056818008423,-0.9926719665527344,1.9647188186645508
1707603405269802000,6.705802001953125,-1.828160285949707,-2.360384464263916,-1.635716199874878
1707603405288696000,6.724696044921875,0.05092620849609375,-2.0578746795654297,-7.04936408996582
1707603405307590100,6.743590087890625,1.4118130207061768,-0.12404060363769531,-12.445239067077637
1707603405326484200,6.762484130859375,1.3618850708007812,-0.5762243270874023,-15.503678321838379
1707603405345378000,6.7813779296875,-1.4503017663955688,-5.319909572601318,-13.80027961730957
1707603405364272000,6.800272216796875,-2.0791683197021484,-10.54240608215332,-10.316309928894043
1707603405383166200,6.819166259765625,-0.734143078327179,-13.07125186920166,-5.8169264793396
1707603405402060300,6.838060302734375,2.991021156311035,-12.208297729492188,-1.3947887420654297
1707603405420954400,6.856954345703125,7.267888069152832,-8.189221382141113,3.466761589050293
1707603405439848400,6.875848388671875,9.461426734924316,-2.4579715728759766,7.437953948974609
1707603405458742500,6.894742431640625,8.25791072845459,1.1554312705993652,10.60294246673584
1707603405477636600,6.91363671875,4.292613506317139,0.8413228988647461,12.417487144470215
1707603405496530700,6.93253076171875,0.364711731672287,0.13478803634643555,11.0552339553833
1707603405515424800,6.9514248046875,-2.9308409690856934,-0.48993444442749023,7.9915289878845215
1707603405534318800,6.97031884765625,-4.318235397338867,-1.1860113143920898,6.104981899261475
1707603405553213000,6.989212890625,-3.8225960731506348,-2.368185043334961,4.465137958526611
1707603405591001000,7.0270009765625,-0.9763134717941284,-3.477695941925049,-0.274834007024765
1707603405609895200,7.045895263671875,0.017215609550476074,-3.2595911026000977,-4.073410987854004
1707603405628789000,7.0647890625,1.6190636157989502,-1.9551939964294434,-8.486246109008789
1707603405647683000,7.08368310546875,2.5274319648742676,-1.415719985961914,-11.88598346710205
1707603405666577200,7.1025771484375,2.867291212081909,-2.555877685546875,-13.401256561279297
1707603405685471200,7.12147119140625,2.77999210357666,-5.150920867919922,-11.547155380249023
1707603405704365300,7.140365234375,2.8118255138397217,-7.596724033355713,-8.602764129638672
1707603405723259400,7.15925927734375,2.5981643199920654,-8.033530235290527,-5.882430076599121
1707603405742153500,7.178153564453125,2.728851318359375,-6.1446685791015625,0.8613119125366211
1707603405761047600,7.197047607421875,3.9536643028259277,-3.1540017127990723,8.93996810913086
1707603405779941600,7.215941650390625,4.754509925842285,-0.052490234375,16.963438034057617
1707603405798835700,7.234835693359375,2.2379350662231445,-0.06417131423950195,20.798152923583984
1707603405817729800,7.253729736328125,-1.7284727096557617,-2.1018824577331543,16.652355194091797
1707603405836624000,7.272623779296875,-3.7061269283294678,-4.891355037689209,9.741462707519531
1707603405855518000,7.29151806640625,-4.7128448486328125,-6.911911487579346,3.86564040184021
1707603405874412000,7.310412109375,-2.619354248046875,-5.160600662231445,-3.5382328033447266
1707603405893306000,7.32930615234375,0.7762194871902466,-2.8446521759033203,-9.381729125976562
1707603405912200200,7.3482001953125,2.3917548656463623,-0.46524524688720703,-13.793792724609375
1707603405931094300,7.36709423828125,3.0825276374816895,-0.012004852294921875,-14.483429908752441
1707603405949988400,7.38598828125,1.8016507625579834,-2.089726448059082,-11.91759204864502
1707603405968882200,7.404882080078125,0.264414519071579,-5.377408504486084,-8.461614608764648
1707603405987776300,7.4237763671875,0.6240001916885376,-8.41047191619873,-7.375473976135254
1707603406006670300,7.44267041015625,3.0110976696014404,-8.396392822265625,-4.1978254318237305
1707603406025564400,7.461564453125,4.997318267822266,-5.498265743255615,3.596409797668457
1707603406044458500,7.48045849609375,7.125816345214844,-2.4848456382751465,11.5947265625
1707603406063352600,7.4993525390625,6.301061153411865,-0.5711898803710938,17.22125244140625
1707603406082246700,7.51824658203125,2.63860821723938,-0.4556913375854492,15.485162734985352
1707603406101140700,7.537140625,-1.0211106538772583,-1.6054935455322266,10.799365997314453
1707603406120034800,7.556034912109375,-3.2266311645507812,-3.51859188079834,6.723963737487793
1707603406138929000,7.574928955078125,-2.614997386932373,-4.899500846862793,2.8117573261260986
1707603406157823000,7.593822998046875,-0.8975970149040222,-4.8679728507995605,-0.9920289516448975
1707603406176717000,7.612717041015625,0.8783994317054749,-3.698859214782715,-5.853795051574707
1707603406195611100,7.631611083984375,2.810429811477661,-1.8705244064331055,-10.215926170349121
1707603406214505200,7.650505126953125,3.4277894496917725,-0.8325223922729492,-13.294755935668945
1707603406233399300,7.6693994140625,3.0864219665527344,-1.6981267929077148,-12.484892845153809
1707603406252293400,7.68829345703125,1.6246665716171265,-3.9592723846435547,-9.014589309692383
1707603406271187500,7.7071875,0.8373415470123291,-6.243671894073486,-5.9124908447265625
1707603406290081300,7.726081298828125,1.6076105833053589,-7.648015022277832,-3.8102095127105713
1707603406308975400,7.744975341796875,3.122779369354248,-6.257143497467041,0.1940922737121582
1707603406327869400,7.763869384765625,3.4472274780273438,-3.9194183349609375,7.2288737297058105
1707603406346763500,7.782763427734375,4.040696144104004,-1.478729248046875,14.032349586486816
1707603406365657600,7.80165771484375,2.028707504272461,1.0277814865112305,15.483437538146973
1707603406384551700,7.8205517578125,-1.365562081336975,2.175994396209717,11.47758960723877
1707603406403445800,7.83944580078125,-4.037876129150391,1.3357067108154297,6.458399772644043
1707603406422339800,7.85833984375,-4.553115367889404,0.3234996795654297,2.009521245956421
1707603406441234000,7.87723388671875,-2.774618625640869,0.020940780639648438,-2.004789113998413
1707603406460128000,7.8961279296875,-0.012268662452697754,-0.5976190567016602,-5.1440019607543945
1707603406479022000,7.91502197265625,1.1678178310394287,-1.504683494567871,-6.284265518188477
1707603406497916200,7.933916259765625,1.604286551475525,-2.982145309448242,-5.367905616760254
1707603406516810200,7.952810302734375,1.6504302024841309,-4.568910121917725,-3.419372797012329
1707603406535704300,7.971704345703125,1.696649193763733,-5.385510444641113,-1.3809292316436768
1707603406554598400,7.990598388671875,2.560638427734375,-5.319975852966309,-0.15097421407699585
1707603406592386600,8.028386474609375,3.809959888458252,-3.147277355194092,0.14654752612113953
1707603406611280600,8.04728076171875,3.13885498046875,-0.9643478393554688,0.838660478591919
1707603406630174500,8.066174560546875,1.942997932434082,1.3359146118164062,1.4100072383880615
1707603406649068500,8.085068603515625,0.31134605407714844,3.415461540222168,1.3857494592666626
1707603406667962600,8.103962646484375,-1.629831075668335,4.464226722717285,0.100688636302948
1707603406686856700,8.122856689453124,-3.539799690246582,4.896346092224121,-0.8069987297058105
1707603406705750800,8.141750732421874,-4.80049991607666,4.643105506896973,-0.8447155952453613
1707603406724644900,8.160644775390624,-5.342546463012695,3.4025793075561523,-0.2934000492095947
1707603406743539000,8.1795390625,-5.30596399307251,1.597860336303711,0.1553928256034851
1707603406762433000,8.19843310546875,-4.520821571350098,-0.07121086120605469,1.2374294996261597
1707603406781327000,8.2173271484375,-2.2727890014648438,-1.7711596488952637,1.3783040046691895
1707603406800221200,8.23622119140625,-0.14856362342834473,-3.141805648803711,1.1692463159561157
1707603406819115300,8.255115234375,1.5691992044448853,-4.070688247680664,2.0484256744384766
1707603406838009300,8.27400927734375,1.9374436140060425,-4.235302925109863,3.8669989109039307
1707603406856903400,8.2929033203125,-0.5949704647064209,-6.717393398284912,2.5688223838806152
1707603406875797500,8.311797607421875,1.261488437652588,-4.065816879272461,-4.146975517272949
1707603406894691600,8.330691650390625,2.170825958251953,-1.5484881401062012,-2.797262668609619
1707603406913585700,8.349585693359375,3.4832053184509277,-0.7798662185668945,0.337399959564209
1707603406932479700,8.368479736328124,4.866847991943359,0.30223941802978516,1.1187825202941895
1707603406951373600,8.38737353515625,5.475673675537109,1.0003209114074707,0.8346099853515625
1707603406970267600,8.406267578125,2.579383373260498,0.8185410499572754,0.29768991470336914
1707603406989161700,8.42516162109375,-0.9478031396865845,0.3138251304626465,-1.7997632026672363
1707603407008055800,8.444055908203126,-2.055982828140259,1.2103161811828613,-3.6566200256347656
1707603407026950000,8.462949951171876,-2.6366279125213623,1.9675748348236084,-4.164488792419434
1707603407045844000,8.481843994140625,-2.6847622394561768,2.87998628616333,-4.027645111083984
1707603407064738000,8.500738037109375,-4.6799116134643555,3.0032994747161865,-2.5645217895507812
1707603407083632000,8.519632080078125,-5.400674819946289,2.069607734680176,-1.3148775100708008
1707603407102526200,8.538526123046875,-4.198668479919434,0.47785329818725586,-1.233001708984375
1707603407121420300,8.557420166015625,-1.7616618871688843,-0.5274906158447266,1.083852767944336
1707603407140314400,8.576314453125,0.7558197379112244,-1.437848687171936,3.683755874633789
1707603407159208400,8.59520849609375,3.69661545753479,-1.9048057794570923,6.280924320220947
1707603407178102500,8.6141025390625,3.5853655338287354,-1.9626160860061646,6.3916015625
1707603407196996600,8.63299658203125,2.983800172805786,-2.5035409927368164,4.716656684875488
1707603407215890700,8.651890625,2.6257033348083496,-2.9059526920318604,1.1125202178955078
1707603407234784500,8.670784423828126,2.2755126953125,-3.1595582962036133,-2.7793798446655273
1707603407253678800,8.689678955078126,0.07359194755554199,-2.1677889823913574,-5.168749809265137
1707603407272573000,8.708572998046876,-1.3818142414093018,-0.19159913063049316,-6.26126766204834
1707603407291466800,8.727466796875,-2.0421674251556396,1.3653757572174072,-6.480817794799805
1707603407310360800,8.74636083984375,-3.243910789489746,1.9463891983032227,-6.022623062133789
1707603407329255000,8.7652548828125,-4.105644226074219,1.881286859512329,-4.4122209548950195
1707603407348149000,8.78414892578125,-3.0869858264923096,2.025111198425293,-1.502833366394043
1707603407367043000,8.80304296875,-2.114776134490967,1.5212297439575195,1.4467191696166992
1707603407385937200,8.821937255859375,-0.528160572052002,1.5986539125442505,3.619138240814209
1707603407404831200,8.840831298828125,0.5679583549499512,2.098646640777588,5.015902042388916
1707603407423725300,8.859725341796874,0.45915889739990234,1.8970987796783447,6.112206935882568
1707603407442619400,8.878619384765624,0.512908935546875,0.4372830390930176,6.313447952270508
1707603407461513500,8.897513427734374,1.3684916496276855,-2.3885772228240967,4.2183637619018555
1707603407480407600,8.916407470703126,1.8785037994384766,-4.44017219543457,0.8610963821411133
1707603407499301600,8.935301513671876,1.9346299171447754,-4.731088638305664,-3.9967308044433594
1707603407518195700,8.95419580078125,1.6854839324951172,-3.3646483421325684,-8.027381896972656
1707603407537089800,8.97308984375,0.017454147338867188,-1.5422158241271973,-9.600885391235352
1707603407555984000,8.99198388671875,-2.3144640922546387,0.260972261428833,-8.921429634094238
1707603407574878000,9.0108779296875,-4.156241416931152,0.9538941383361816,-5.596620559692383
1707603407593772000,9.02977197265625,-3.5180437564849854,0.6865534782409668,-1.3815960884094238
1707603407612666000,9.048666015625,-2.5478687286376953,0.7490049600601196,2.753584861755371
1707603407631560000,9.067559814453125,-1.671980381011963,1.8354978561401367,6.633125305175781
1707603407650454000,9.0864541015625,0.8155660629272461,2.605137825012207,9.254395484924316
1707603407669348000,9.10534814453125,1.8096470832824707,1.8754348754882812,8.049935340881348
1707603407688242200,9.1242421875,1.7747774124145508,0.02683711051940918,5.423826217651367
1707603407707136300,9.14313623046875,1.6934361457824707,-1.370265007019043,2.648128032684326
1707603407726030300,9.1620302734375,1.7887029647827148,-2.3692798614501953,-0.7043094635009766
1707603407744924400,9.18092431640625,2.2794570922851562,-3.319931983947754,-3.4132885932922363
1707603407763818500,9.199818603515626,2.628462791442871,-4.038508892059326,-4.37985897064209
1707603407782712600,9.218712646484375,2.173664093017578,-4.1287407875061035,-3.9013662338256836
1707603407801606700,9.237606689453125,1.3060941696166992,-4.290213108062744,-2.4414095878601074
1707603407820500700,9.256500732421875,-0.4159684181213379,-4.0473480224609375,-1.0334410667419434
1707603407839394800,9.275394775390625,-1.0564231872558594,-3.5734286308288574,0.26478147506713867
1707603407858289000,9.294288818359375,-2.0552167892456055,-1.8629183769226074,1.6241579055786133
1707603407877183000,9.313182861328125,-2.8462257385253906,0.6129069328308105,2.1686530113220215
1707603407896077000,9.3320771484375,-2.578979253768921,3.8502163887023926,2.876359462738037
1707603407914971100,9.35097119140625,-2.5809457302093506,7.239771842956543,3.1350021362304688
1707603407933865200,9.369865234375,-3.280545473098755,8.074295997619629,2.155428886413574
1707603407952759300,9.38875927734375,-3.2744503021240234,6.523861885070801,0.9015860557556152
1707603407971653400,9.4076533203125,-1.1092262268066406,4.418980121612549,0.06801366806030273
1707603407990547500,9.42654736328125,0.5922503471374512,2.071314573287964,-0.649254322052002
1707603408009441300,9.445441162109375,1.2684412002563477,-0.8386492729187012,-1.1760802268981934
1707603408028335400,9.46433544921875,0.7688479423522949,-3.1705431938171387,-1.3834543228149414
1707603408047229400,9.4832294921875,0.2780733108520508,-4.999855041503906,-1.3921599388122559
1707603408066123500,9.50212353515625,0.29448843002319336,-5.980837821960449,-0.838470458984375
1707603408085017600,9.521017578125,1.275092601776123,-6.811888217926025,-0.3334813117980957
1707603408103911700,9.53991162109375,2.1201043128967285,-7.1651434898376465,0.3841562271118164
1707603408122805800,9.5588056640625,2.7140769958496094,-7.162365913391113,1.382857322692871
1707603408141699800,9.577699951171875,2.852431297302246,-5.913469314575195,2.544131278991699
1707603408160594000,9.596593994140624,1.4125142097473145,-3.8669590950012207,3.0383756160736084
1707603408179488000,9.615488037109374,-0.13225793838500977,-1.1764307022094727,2.827831745147705
1707603408198382000,9.634382080078124,-1.921147346496582,2.165783405303955,1.936082363128662
1707603408217276200,9.653276123046876,-3.566995620727539,6.138870716094971,1.23527193069458
1707603408236170200,9.672170166015626,-4.4185028076171875,8.844569206237793,1.0894441604614258
1707603408255064300,9.691064208984375,-3.9168224334716797,8.463098526000977,0.7115721702575684
1707603408273958400,9.70995849609375,-3.502500057220459,6.35331392288208,0.1743159294128418
1707603408292852500,9.7288525390625,-1.6513662338256836,4.18705415725708,0.20993661880493164
1707603408311746600,9.74774658203125,-0.4805150032043457,1.799802303314209,0.4806966781616211
1707603408330640600,9.766640625,0.6181893348693848,-1.2670769691467285,-0.21998882293701172
1707603408349534700,9.78553466796875,0.9181118011474609,-3.9101486206054688,-0.6289315223693848
1707603408368428800,9.8044287109375,1.5381121635437012,-4.973621368408203,-0.8253340721130371
1707603408387323000,9.823322998046875,2.350104808807373,-5.915391445159912,-1.011582374572754
1707603408406216700,9.842216796875,2.5800395011901855,-6.546109676361084,-1.0698275566101074
1707603408425110800,9.86111083984375,2.778219223022461,-6.627163410186768,-0.3089585304260254
1707603408444004900,9.8800048828125,2.0894927978515625,-5.905597686767578,0.7702183723449707
1707603408462899000,9.89889892578125,0.6203536987304688,-5.241588115692139,1.9275693893432617
1707603408481793000,9.91779296875,-1.1348767280578613,-3.0774827003479004,2.5302176475524902
1707603408500687000,9.93668701171875,-2.0468854904174805,-0.16455984115600586,2.5853395462036133
1707603408519581200,9.955581298828125,-1.800786018371582,3.3224735260009766,2.5767898559570312
1707603408538475300,9.974475341796875,-1.8305187225341797,7.351856708526611,2.3608109951019287
1707603408557369300,9.993369384765625,-2.4727518558502197,9.234375,1.562659740447998
1707603408576263400,10.012263427734375,-3.0587377548217773,7.8594770431518555,0.1625838279724121
1707603408595157500,10.031157470703125,-2.140190362930298,5.547430515289307,-0.35463762283325195
1707603408614051600,10.050051513671875,0.24129915237426758,3.04793119430542,-0.771697998046875
1707603408632945700,10.068945556640625,1.3628826141357422,0.30095767974853516,-1.0188746452331543
1707603408651839700,10.08783984375,1.9755849838256836,-2.453526020050049,-1.1978425979614258
1707603408670733800,10.10673388671875,2.495969772338867,-4.931960582733154,-0.3033123016357422
1707603408689628000,10.1256279296875,2.7070798873901367,-6.796356678009033,0.9834823608398438
1707603408708522000,10.14452197265625,1.974179744720459,-7.592452526092529,1.4349102973937988
1707603408727416000,10.163416015625,1.1763005256652832,-7.050637245178223,1.1176748275756836
1707603408746310100,10.18231005859375,0.4716920852661133,-5.650056838989258,0.18233108520507812
1707603408765204200,10.201204345703125,-0.7590374946594238,-4.5326409339904785,-0.2104649543762207
1707603408784098000,10.22009814453125,-1.8133049011230469,-3.6531929969787598,0.3777623176574707
1707603408802992400,10.238992431640625,-2.7179160118103027,-1.864762783050537,0.4179081916809082
1707603408821886500,10.257886474609375,-2.8285908699035645,0.8694620132446289,-0.4380607604980469
1707603408840780300,10.2767802734375,-2.587158679962158,3.4328808784484863,-0.45209217071533203
1707603408859674400,10.29567431640625,-1.8166372776031494,5.460751056671143,0.38535118103027344
1707603408878568400,10.314568359375,-1.1454925537109375,6.936637878417969,1.4974980354309082
1707603408897462500,10.333462646484374,-0.38639068603515625,7.779134750366211,2.2677340507507324
1707603408916356600,10.352356689453124,-0.05725288391113281,6.6526336669921875,0.9642152786254883
1707603408935250700,10.371250732421874,0.30040740966796875,4.482668876647949,-0.5031585693359375
1707603408954144800,10.390144775390626,0.2577972412109375,2.4795289039611816,-0.3849320411682129
1707603408973038800,10.409038818359376,-0.061263084411621094,0.5569596290588379,-0.0382380485534668
1707603408991933000,10.427932861328125,-0.13472890853881836,-2.01908016204834,-0.18952178955078125
1707603409010827000,10.446826904296875,0.13317108154296875,-4.50539493560791,-0.14520978927612305
1707603409029721000,10.46572119140625,0.07817459106445312,-5.3297247886657715,0.49765491485595703
1707603409048615200,10.484615234375,0.1940460205078125,-5.3820905685424805,1.196763515472412
1707603409067509200,10.50350927734375,0.14788150787353516,-5.4969658851623535,1.5975656509399414
1707603409086403300,10.5224033203125,0.1407184600830078,-5.866543769836426,1.367537498474121
1707603409105297400,10.54129736328125,0.16923809051513672,-5.7028045654296875,0.4123411178588867
1707603409124191500,10.56019140625,0.5338664054870605,-4.910691738128662,-0.2998032569885254
1707603409143085600,10.57908544921875,1.0423007011413574,-3.789825916290283,-0.5665345191955566
1707603409161979600,10.597979736328124,1.6274123191833496,-1.8598339557647705,-1.053337574005127
1707603409180873700,10.616873779296874,1.6549263000488281,2.229146718978882,-1.129918098449707
1707603409199767800,10.635767822265626,0.22179698944091797,6.907209396362305,0.29549217224121094
1707603409218662000,10.654661865234376,-2.150906562805176,9.110201835632324,1.9572935104370117
1707603409237555700,10.6735556640625,-5.243042469024658,8.431918144226074,2.6437902450561523
1707603409256450000,10.692449951171875,-6.527910232543945,6.136072158813477,3.4025745391845703
1707603409275344100,10.71134423828125,-5.151018142700195,3.852900505065918,3.0959129333496094
1707603409294238000,10.730238037109375,-1.9413340091705322,1.8330838680267334,1.7687044143676758
1707603409313132000,10.749132080078125,0.900479793548584,0.13146591186523438,0.8719453811645508
1707603409332026000,10.768026123046875,1.6596107482910156,-1.9807207584381104,0.2971949577331543
1707603409350920200,10.786920166015625,1.4482474327087402,-4.901636600494385,-0.19746685028076172
1707603409369814300,10.805814208984375,1.8389477729797363,-7.808120250701904,0.29667043685913086
1707603409388708400,10.824708251953124,2.474257230758667,-8.286907196044922,0.7212543487548828
1707603409407602400,10.8436025390625,2.447784185409546,-7.042304515838623,0.09164237976074219
1707603409426496500,10.86249658203125,1.651857852935791,-5.108889579772949,-1.0042448043823242
1707603409445390600,10.881390625,0.594841480255127,-3.397268772125244,-1.4583983421325684
1707603409464284700,10.90028466796875,-0.5065743923187256,-2.6446123123168945,-1.3288202285766602
1707603409483178800,10.9191787109375,-0.6372127532958984,-1.297098159790039,-0.9255352020263672
1707603409502072800,10.93807275390625,-0.14433622360229492,0.6628546714782715,-0.138458251953125
1707603409520967000,10.956966796875,-0.17522287368774414,4.678595542907715,1.0841584205627441
1707603409539861000,10.975861083984375,-0.9065952301025391,7.927011489868164,0.9130406379699707
1707603409558755000,10.994755126953125,-2.579883575439453,8.471464157104492,1.4788198471069336
1707603409596543200,11.032543212890625,-5.99338960647583,4.576257705688477,3.7453975677490234
1707603409615437300,11.051437255859375,-5.133614540100098,2.177168369293213,3.451169967651367
1707603409634331400,11.070331298828124,-2.5407304763793945,-0.47040438652038574,2.5566673278808594
1707603409653225500,11.0892255859375,0.3677506446838379,-2.766101598739624,0.09831047058105469
1707603409672119300,11.108119384765626,2.009899139404297,-5.520456314086914,-3.1259450912475586
1707603409691013400,11.127013427734376,1.2441105842590332,-7.248857021331787,-5.189306259155273
1707603409709907500,11.145907470703126,3.158280372619629,-6.96191930770874,-4.413237571716309
1707603409728801500,11.164801513671875,4.273316383361816,-6.478265762329102,-3.471759796142578
1707603409747695600,11.183695556640625,3.2638015747070312,-5.617501258850098,-2.4379987716674805
1707603409766589700,11.202589599609375,1.1885032653808594,-4.691774368286133,-0.635986328125
1707603409785483800,11.22148388671875,-0.8472211360931396,-3.23298978805542,1.3482942581176758
1707603409804377900,11.2403779296875,-2.4693403244018555,0.028001904487609863,3.5833287239074707
1707603409823272000,11.25927197265625,-3.256213665008545,3.8537983894348145,5.811652660369873
1707603409842166000,11.278166015625,-3.7940964698791504,5.157689571380615,5.33900785446167
1707603409861060000,11.29706005859375,-4.049568176269531,4.724971771240234,3.418813705444336
1707603409879954200,11.3159541015625,-2.71901798248291,3.494969367980957,1.9929609298706055
1707603409898848300,11.33484814453125,-0.5435080528259277,2.685840129852295,0.399749755859375
1707603409917742300,11.353742431640624,1.4819607734680176,2.005192995071411,-1.078526496887207
1707603409936636400,11.372636474609376,2.3197741508483887,0.9981811046600342,-2.3773908615112305
1707603409955530500,11.391530517578126,1.8287949562072754,-0.6665284633636475,-3.27840518951416
1707603409974424600,11.410424560546875,1.1979622840881348,-2.783879280090332,-3.1055288314819336
1707603409993318700,11.429318603515625,1.9302480220794678,-5.454211711883545,-2.141019821166992
1707603410012212700,11.448212646484375,2.7492103576660156,-6.215949058532715,-0.8050060272216797
1707603410031106800,11.46710693359375,3.4375357627868652,-5.671041488647461,0.40965938568115234
1707603410050001000,11.4860009765625,2.512763738632202,-4.095329284667969,1.2842988967895508
1707603410068895000,11.50489501953125,0.8693385124206543,-1.5840961933135986,1.8412818908691406
1707603410087789000,11.5237890625,-1.3456025123596191,2.33160662651062,2.0901007652282715
1707603410106683100,11.54268310546875,-3.2519075870513916,6.095703125,3.07485294342041
1707603410125577000,11.561576904296874,-6.3248677253723145,7.001917839050293,2.518651008605957
1707603410144471000,11.580470947265624,-8.832791328430176,4.410240650177002,1.483851432800293
1707603410163365400,11.599365478515624,-8.4676513671875,0.8070344924926758,1.1164231300354004
1707603410182259200,11.61825927734375,-3.7900218963623047,-0.47971320152282715,0.1450047492980957
1707603410201153300,11.6371533203125,3.760124683380127,-0.5111684799194336,-1.8257298469543457
1707603410220047400,11.65604736328125,6.919306755065918,-0.9701142311096191,-2.0041799545288086
1707603410238941400,11.67494140625,6.6704511642456055,-2.439545154571533,-1.0527615547180176
1707603410257835500,11.69383544921875,5.2714948654174805,-4.152960300445557,0.3909273147583008
1707603410276729600,11.7127294921875,2.8595848083496094,-3.9625673294067383,2.7526955604553223
1707603410295623700,11.731623779296875,0.5626931190490723,-3.0756802558898926,4.142273902893066
1707603410314517800,11.750517822265625,-1.404942274093628,-2.087576389312744,3.6521902084350586
1707603410333411800,11.769411865234375,-2.5068397521972656,-0.8061490058898926,1.8303775787353516
1707603410352306000,11.788305908203125,-3.3522191047668457,0.2287149429321289,-0.055188655853271484
1707603410371200000,11.807199951171874,-3.548261880874634,0.3170952796936035,-1.9700655937194824
1707603410390094000,11.826093994140624,-2.6325042247772217,-0.6468596458435059,-3.17445707321167
1707603410408988200,11.84498828125,-0.27687978744506836,-1.1911792755126953,-4.080074787139893
1707603410427882200,11.86388232421875,2.2491989135742188,-1.6599607467651367,-3.390016555786133
1707603410446776300,11.8827763671875,3.7445592880249023,-2.375176429748535,-2.0133705139160156
1707603410465670400,11.90167041015625,4.0940046310424805,-2.7141218185424805,-0.1684412956237793
1707603410484564500,11.920564453125,3.4783530235290527,-2.705040454864502,2.873033046722412
1707603410503458600,11.93945849609375,1.5195751190185547,-0.5974910259246826,5.00814962387085
1707603410522352600,11.9583525390625,-0.9735157489776611,1.6887035369873047,6.804263114929199
1707603410541246700,11.977246826171875,-3.2645158767700195,4.341670036315918,7.092491149902344
1707603410560140800,11.996140869140625,-5.057626247406006,3.9412388801574707,3.663097381591797
1707603410579034600,12.01503466796875,-6.151933670043945,0.7879018783569336,0.0017614364624023438
1707603410616822800,12.05282275390625,-0.11764240264892578,-1.0361957550048828,-6.541984558105469
1707603410635716900,12.071716796875,3.6578593254089355,0.0461277961730957,-8.936246871948242
1707603410654611000,12.09061083984375,4.7317609786987305,-0.007183074951171875,-7.432321071624756
1707603410673505000,12.109505126953126,3.5955777168273926,-1.584505558013916,-3.554190158843994
1707603410692399000,12.128399169921876,1.969010829925537,-2.437251567840576,1.0769648551940918
1707603410711293200,12.147293212890625,0.03008890151977539,-0.7534332275390625,4.9720306396484375
1707603410730187300,12.166187255859375,-1.7893731594085693,1.955564022064209,7.2137346267700195
1707603410749081300,12.185081298828125,-3.2586746215820312,2.7397639751434326,8.644042015075684
1707603410767975400,12.203975341796875,-3.3077263832092285,1.6661443710327148,7.432837009429932
1707603410786869500,12.222869384765625,-2.143850326538086,0.19965314865112305,4.73006010055542
1707603410805763600,12.241763671875,-0.11620569229125977,-2.413968563079834,0.0929555892944336
1707603410824657700,12.26065771484375,1.9791982173919678,-4.2518157958984375,-5.4470086097717285
1707603410843551700,12.2795517578125,2.7716119289398193,-4.425137519836426,-10.249935150146484
1707603410862445800,12.29844580078125,2.3642375469207764,-4.266977310180664,-12.428876876831055
1707603410881340000,12.31733984375,1.275916576385498,-3.6775970458984375,-10.994833946228027
1707603410900234000,12.33623388671875,-0.8589625358581543,-2.881021022796631,-6.654541492462158
1707603410919128000,12.355128173828126,-2.7567436695098877,-2.4807019233703613,-1.5033531188964844
1707603410938022100,12.374022216796876,-3.8094210624694824,-1.3820419311523438,2.8182430267333984
1707603410956916200,12.392916259765625,-3.727146863937378,0.7431883811950684,7.022668361663818
1707603410975810300,12.411810302734375,-2.7518694400787354,3.3578195571899414,9.943633079528809
1707603410994704400,12.430704345703125,-1.3308830261230469,4.325348377227783,9.409164428710938
1707603411013598200,12.44959814453125,-0.8794770240783691,4.443547248840332,7.751526832580566
1707603411032492300,12.4684921875,-0.7062826156616211,3.244460344314575,5.3043599128723145
1707603411051386400,12.487386474609375,-0.8859004974365234,1.3382325172424316,2.702877998352051
1707603411070280400,12.506280517578125,-0.09224414825439453,-1.2975730895996094,-0.09190034866333008
1707603411089174500,12.525174560546875,1.6248717308044434,-4.164852142333984,-3.419250965118408
1707603411108068600,12.544068603515624,3.1712870597839355,-6.1131510734558105,-6.525059223175049
1707603411126962700,12.562962646484374,3.5424814224243164,-5.575747966766357,-8.347417831420898
1707603411145856800,12.581856689453126,2.4191527366638184,-3.963491439819336,-8.58137321472168
1707603411164750800,12.600750732421876,-0.15659856796264648,-2.3828234672546387,-6.589015007019043
1707603411183645000,12.61964501953125,-3.2409324645996094,-1.5458555221557617,-2.3312559127807617
1707603411202539000,12.6385390625,-4.979507923126221,-0.6529197692871094,2.7170486450195312
1707603411221433000,12.65743310546875,-4.939421653747559,1.2359178066253662,7.7347917556762695
1707603411240327200,12.6763271484375,-3.484107732772827,3.371140480041504,10.56991195678711
1707603411259221200,12.69522119140625,-2.0071401596069336,3.450856924057007,10.294927597045898
1707603411278115300,12.714115234375,-1.6702065467834473,1.599555492401123,7.944268226623535
1707603411297009400,12.733009521484375,-1.058908462524414,-0.6058378219604492,5.23710298538208
1707603411315903500,12.751903564453125,-0.24025678634643555,-2.304135799407959,1.1433653831481934
1707603411334797600,12.770797607421875,1.3907184600830078,-4.211792469024658,-4.5494890213012695
1707603411353691600,12.789691650390624,3.2740068435668945,-5.048855304718018,-9.929945945739746
1707603411372585700,12.808585693359374,4.148845672607422,-4.400235652923584,-11.681441307067871
1707603411391479800,12.827479736328126,3.3367502689361572,-3.473567008972168,-10.445270538330078
1707603411410374000,12.846373779296876,1.027517318725586,-2.991964817047119,-6.544989585876465
1707603411429268000,12.86526806640625,-2.1805756092071533,-2.363436698913574,-2.0854763984680176
1707603411448162000,12.884162109375,-4.998772621154785,-1.1181869506835938,2.7931466102600098
1707603411467055900,12.903055908203125,-6.280120849609375,1.1054916381835938,10.272350311279297
1707603411485950000,12.921949951171875,-4.993951797485352,3.2033767700195312,15.004173278808594
1707603411504844000,12.940843994140625,-2.7862396240234375,2.337825059890747,12.254108428955078
1707603411523738000,12.959738037109375,-1.5953731536865234,0.7435336112976074,8.360650062561035
1707603411542632200,12.978632080078125,-0.627892017364502,-0.5385470390319824,4.014439105987549
1707603411561526300,12.9975263671875,-0.2540309429168701,-2.156869411468506,-0.8592071533203125
1707603411580420400,13.01642041015625,0.7904980182647705,-4.976502895355225,-6.264432430267334
1707603411618208500,13.05420849609375,3.941282272338867,-4.6997528076171875,-11.927309036254883
1707603411637102600,13.0731025390625,3.5847270488739014,-2.981189727783203,-11.188787460327148
1707603411655996700,13.09199658203125,0.7414007186889648,-1.5458464622497559,-7.925708770751953
1707603411674890800,13.110890869140626,-2.1206393241882324,-1.7598376274108887,-2.9968247413635254
1707603411693784800,13.129784912109375,-3.569567918777466,-0.991325855255127,1.2157769203186035
1707603411712679000,13.148678955078125,-4.426236152648926,1.182258129119873,6.179682731628418
1707603411731573000,13.167572998046875,-4.757440090179443,2.8202590942382812,10.520936012268066
1707603411750467000,13.186467041015625,-3.5807743072509766,2.4949896335601807,10.774356842041016
1707603411769361200,13.205361083984375,-0.9420075416564941,1.6504862308502197,7.553477764129639
1707603411788255200,13.224255126953125,0.08267688751220703,0.7857251167297363,5.100388050079346
1707603411807149300,13.2431494140625,0.45508670806884766,0.00852203369140625,1.288672924041748
1707603411826043400,13.26204345703125,0.5612156391143799,-1.167616367340088,-2.260652542114258
1707603411844937200,13.280937255859374,1.3530023097991943,-3.428285598754883,-5.241767406463623
1707603411863831300,13.299831298828124,1.9436912536621094,-4.582174301147461,-7.197266101837158
1707603411882725400,13.318725341796876,2.137282133102417,-4.322708606719971,-7.838127136230469
1707603411901619500,13.337619384765626,1.3370206356048584,-3.2598533630371094,-6.918604373931885
1707603411920513500,13.356513427734376,-0.07708501815795898,-2.468374252319336,-4.810562610626221
1707603411939407600,13.37540771484375,-1.1978487968444824,-2.3799214363098145,-2.1332645416259766
1707603411958301700,13.3943017578125,-1.9148828983306885,-1.4319186210632324,0.7216591835021973
1707603411977195800,13.41319580078125,-2.5852766036987305,0.7923014163970947,3.926055908203125
1707603411996089900,13.43208984375,-3.5495588779449463,3.023589849472046,7.896200180053711
1707603412014984000,13.45098388671875,-4.158105850219727,3.19400954246521,10.172737121582031
1707603412033878000,13.4698779296875,-3.721975326538086,1.1123669147491455,9.475627899169922
1707603412052772000,13.488772216796875,-1.3162593841552734,-0.9971323013305664,7.189818859100342
1707603412071666200,13.507666259765625,1.4293174743652344,-2.196256637573242,3.811734914779663
1707603412090560300,13.526560302734374,3.306680917739868,-3.482039451599121,-1.4377212524414062
1707603412109454300,13.545454345703124,3.599606990814209,-4.526101112365723,-7.115705490112305
1707603412128348400,13.564348388671876,3.1107177734375,-3.9589619636535645,-10.03232192993164
1707603412147242500,13.583242431640626,2.108057975769043,-2.59306001663208,-10.75419807434082
1707603412166136600,13.602136474609376,0.16117191314697266,-0.8714761734008789,-9.38855266571045
1707603412185030700,13.62103076171875,-2.3195223808288574,0.24597692489624023,-5.883770942687988
1707603412203924700,13.6399248046875,-3.7593019008636475,0.7294855117797852,-1.7721996307373047
1707603412222818800,13.65881884765625,-3.7542238235473633,1.1402311325073242,2.195211410522461
1707603412241712600,13.677712646484375,-3.7470078468322754,2.205482006072998,6.323760986328125
1707603412260607000,13.69660693359375,-3.411241054534912,3.066182851791382,9.918846130371094
1707603412279501000,13.7155009765625,-2.690330982208252,2.050708055496216,10.347770690917969
1707603412298395000,13.734394775390625,-0.9080643653869629,0.23351383209228516,8.085481643676758
1707603412317289000,13.7532890625,1.8588504791259766,-1.1038737297058105,4.504402160644531
1707603412336183000,13.77218310546875,3.0646262168884277,-2.696317672729492,0.1791830062866211
1707603412355077000,13.7910771484375,3.3549766540527344,-4.248291492462158,-4.129255771636963
1707603412373971200,13.80997119140625,3.634249210357666,-5.415846347808838,-7.363787651062012
1707603412392865300,13.828865234375,3.038970470428467,-4.74826192855835,-8.534683227539062
1707603412411759400,13.84775927734375,2.160034656524658,-3.348310947418213,-7.487931251525879
1707603412430653400,13.8666533203125,0.04681873321533203,-1.8979535102844238,-5.496633529663086
1707603412449547500,13.885547607421875,-1.4238476753234863,-1.011296272277832,-2.4476242065429688
1707603412468441600,13.904441650390625,-3.006436824798584,1.0012412071228027,0.6540870666503906
1707603412487335700,13.923335693359375,-4.66164493560791,3.5427839756011963,4.43095588684082
1707603412506229800,13.942229736328125,-6.312412261962891,5.340761184692383,7.976827621459961
1707603412525123800,13.961123779296875,-6.337384223937988,4.4094953536987305,9.696112632751465
1707603412544018000,13.980017822265625,-2.9567339420318604,2.20153546333313,9.419978141784668
1707603412562912000,13.998912109375,0.24875211715698242,-0.6469631195068359,7.688528060913086
1707603412581806000,14.01780615234375,1.8156676292419434,-2.4925031661987305,4.091454029083252
1707603412619594000,14.055593994140626,1.9261913299560547,-5.818124771118164,-5.497933864593506
1707603412638488000,14.074488037109376,2.1034045219421387,-6.017292499542236,-9.885814666748047
1707603412657382400,14.09338232421875,1.673447608947754,-4.116983413696289,-11.047799110412598
1707603412676276200,14.112276123046875,0.2962760925292969,-2.7610831260681152,-9.866711616516113
1707603412695170300,14.13117041015625,-1.4108693599700928,-2.4459939002990723,-6.826886177062988
1707603412714064400,14.150064453125,-3.090632915496826,-2.8495287895202637,-2.43450927734375
1707603412732958500,14.16895849609375,-3.3299880027770996,-3.4450273513793945,1.5279011726379395
1707603412751852500,14.1878525390625,-2.7709531784057617,-2.2699337005615234,4.922216415405273
1707603412770746600,14.20674658203125,-1.8936810493469238,0.9837424755096436,8.289224624633789
1707603412789640700,14.225640625,-1.4387331008911133,4.304078102111816,9.647335052490234
1707603412808534800,14.24453466796875,-1.6712646484375,4.902923107147217,7.931916236877441
1707603412827428900,14.263428955078124,-2.3722281455993652,3.8014912605285645,5.807894706726074
1707603412846323000,14.282322998046874,-1.5386483669281006,2.1784486770629883,3.630831241607666
1707603412865217000,14.301217041015626,0.2620415687561035,0.47873926162719727,0.9737715721130371
1707603412884111000,14.320111083984376,1.427015781402588,-1.3240509033203125,-2.8542423248291016
1707603412903005200,14.339005126953126,1.8960254192352295,-3.1658716201782227,-6.366812229156494
1707603412921899300,14.357899169921875,2.47196102142334,-4.244473934173584,-7.622743129730225
1707603412940793300,14.37679345703125,2.5733885765075684,-3.9635214805603027,-6.516096115112305
1707603412959687400,14.3956875,2.059370279312134,-3.4845619201660156,-5.004261493682861
1707603412978581500,14.41458154296875,0.8271975517272949,-2.845447540283203,-3.400089740753174
1707603412997475600,14.4334755859375,-0.42763757705688477,-2.6954617500305176,-0.7037291526794434
1707603413016369400,14.452369384765625,-1.1070280075073242,-2.4690866470336914,0.8535399436950684
1707603413035263500,14.471263427734375,-1.1740384101867676,-1.7025842666625977,2.568704605102539
1707603413054157800,14.49015771484375,-0.9380607604980469,0.10792398452758789,4.958678245544434
1707603413073051600,14.5090517578125,-0.839116096496582,2.416821002960205,7.93135404586792
1707603413091945700,14.52794580078125,-1.115633487701416,3.51025652885437,8.350981712341309
1707603413110839800,14.54683984375,-1.5416998863220215,3.17844820022583,6.817732810974121
1707603413129734000,14.56573388671875,-1.3204388618469238,2.0859875679016113,4.296782970428467
1707603413148628000,14.5846279296875,-0.49601221084594727,0.0024476051330566406,0.5986161231994629
1707603413167522000,14.60352197265625,0.37487125396728516,-2.023245334625244,-3.4880685806274414
1707603413186416000,14.622416015625,2.0218429565429688,-4.135887145996094,-6.159979820251465
1707603413205310200,14.641310302734375,2.843921184539795,-4.337900638580322,-7.7721076011657715
1707603413224204300,14.660204345703125,1.6377449035644531,-3.276735305786133,-7.171039581298828
1707603413243098400,14.679098388671875,-0.6493759155273438,-2.563558578491211,-5.352893352508545
1707603413261992400,14.697992431640625,-2.201080322265625,-3.0362138748168945,-3.14265775680542
1707603413280886500,14.716886474609375,-2.459225654602051,-3.7442262172698975,-0.7204818725585938
1707603413299780600,14.735780517578124,-1.381338119506836,-4.1131696701049805,1.6161065101623535
1707603413318674700,14.7546748046875,0.6018905639648438,-3.779325485229492,3.548002243041992
1707603413337568800,14.77356884765625,2.1505651473999023,-1.9688701629638672,4.667128562927246
1707603413356462800,14.792462890625,3.22343111038208,-0.17776915431022644,5.304525375366211
1707603413375357000,14.81135693359375,3.1929211616516113,1.9057624340057373,5.59423828125
1707603413394251000,14.8302509765625,0.6125245094299316,3.133772850036621,5.384054183959961
1707603413413144800,14.849144775390625,-2.5017683506011963,3.2267343997955322,4.246096611022949
1707603413432039000,14.868038818359375,-5.733187198638916,3.300846815109253,1.6326756477355957
1707603413450933000,14.88693310546875,-6.381067752838135,2.3687920570373535,0.033771514892578125
1707603413469827000,14.9058271484375,-3.718550205230713,1.9880568981170654,-0.4162006378173828
1707603413488721200,14.92472119140625,-2.982496500015259,3.2403645515441895,-0.09493541717529297
1707603413507615200,14.943615234375,-3.568999767303467,1.8363375663757324,-1.1851634979248047
1707603413526509300,14.96250927734375,-2.9647512435913086,-0.8831748962402344,-2.233591079711914
1707603413545403400,14.9814033203125,-3.301964282989502,-1.1372766494750977,-3.121002197265625
1707603413564297500,15.00029736328125,-1.5995590686798096,-0.7487859725952148,-4.400426387786865
1707603413583191600,15.019191650390624,-0.5267263054847717,-0.07477807998657227,-4.251439094543457
1707603413602085600,15.038085693359376,-0.4047262668609619,-0.1267986297607422,-4.124303340911865
1707603413620979700,15.056979736328126,-0.32937610149383545,-0.6839022636413574,-3.0030441284179688
1707603413639873800,15.075873779296876,1.0920416116714478,-1.313875675201416,-1.0469188690185547
1707603413658768000,15.094767822265625,2.1127853393554688,-2.143324375152588,0.40256834030151367
1707603413677662000,15.113661865234375,1.0948495864868164,-3.612882614135742,1.720278263092041
1707603413696556000,15.13255615234375,2.6816608905792236,-6.219069480895996,3.9024548530578613
1707603413715450000,15.1514501953125,5.529077529907227,-8.04606819152832,4.477609634399414
1707603413734344000,15.170343994140625,7.594061851501465,-6.5629377365112305,4.438656806945801
1707603413753238300,15.18923828125,5.622115612030029,-4.2915425300598145,3.6872105598449707
1707603413772132400,15.20813232421875,0.29961061477661133,-1.2298669815063477,2.6641159057617188
1707603413791026200,15.227026123046874,-3.7406413555145264,2.359762191772461,3.087636709213257
1707603413809920300,15.245920166015624,-6.059078693389893,5.1479949951171875,1.3754169940948486
1707603413828814300,15.264814453125,-7.0731987953186035,7.711978912353516,-1.8036508560180664
1707603413847708400,15.28370849609375,-7.20632266998291,8.832627296447754,-5.046737194061279
1707603413866602500,15.3026025390625,-7.3439717292785645,7.064630508422852,-6.616427898406982
1707603413885496600,15.32149658203125,-6.934060573577881,4.226680755615234,-5.95002555847168
1707603413904390700,15.340390625,-6.914248943328857,0.7026548385620117,-4.1121673583984375
1707603413923284700,15.35928466796875,-4.556318759918213,-2.403778076171875,-2.568018913269043
1707603413942178800,15.3781787109375,-0.7814726829528809,-5.141342639923096,-2.800095796585083
1707603413961073000,15.397072998046875,2.7407469749450684,-7.846498489379883,-3.503723382949829
1707603413979967000,15.415967041015625,5.865893840789795,-9.865873336791992,-3.0199570655822754
1707603413998861000,15.434861083984375,9.55688762664795,-9.66450309753418,-0.6273927688598633
1707603414017755100,15.453755126953125,9.228744506835938,-8.790616035461426,1.7503373622894287
1707603414036649200,15.472649169921874,6.1175217628479,-7.765186786651611,3.4356017112731934
1707603414055543300,15.491543212890624,1.910031795501709,-4.634396553039551,4.5547943115234375
1707603414074437400,15.510437255859374,-1.0460686683654785,0.7003669738769531,5.945028305053711
1707603414093331500,15.52933154296875,-4.326641082763672,6.0597124099731445,4.5264716148376465
1707603414112225500,15.5482255859375,-7.6514506340026855,9.255547523498535,0.9474911689758301
1707603414131119400,15.567119384765626,-9.22401237487793,9.497252464294434,-1.52649986743927
1707603414150013400,15.586013427734375,-8.664987564086914,6.7408599853515625,-1.3491299152374268
1707603414168907500,15.604907470703125,-6.710771560668945,2.0556087493896484,-1.1836049556732178
1707603414187801600,15.623801513671875,-3.52036190032959,-3.170895576477051,-1.7548879384994507
1707603414206695700,15.64269580078125,3.051563262939453,-7.293066024780273,-2.889686346054077
1707603414225589800,15.66158984375,9.389322280883789,-9.619443893432617,-1.9611908197402954
1707603414244483800,15.68048388671875,12.408431053161621,-9.789499282836914,0.3783043622970581
1707603414263378000,15.6993779296875,10.356281280517578,-8.537264823913574,0.5040675401687622
1707603414282272000,15.71827197265625,6.778653144836426,-6.465953350067139,-2.0231471061706543
1707603414301166000,15.737166015625,0.9810553193092346,-5.364680290222168,-2.4939942359924316
1707603414320060200,15.75606005859375,-2.4973087310791016,-0.6287107467651367,-0.2070298194885254
1707603414338954200,15.774954345703126,-5.253946304321289,5.12214469909668,1.2206107378005981
1707603414357848300,15.793848388671876,-8.515188217163086,8.304158210754395,1.0211033821105957
1707603414376742400,15.812742431640626,-10.13261604309082,8.376424789428711,0.22140562534332275
1707603414395636200,15.83163623046875,-9.890137672424316,7.636983871459961,0.40706872940063477
1707603414414530600,15.850530517578125,-8.927696228027344,4.094242095947266,0.7156538963317871
1707603414433424600,15.869424560546875,-5.506042003631592,0.06916618347167969,-1.3775413036346436
1707603414452318500,15.888318359375,-1.7312355041503906,-2.5746989250183105,-3.7804579734802246
1707603414471212500,15.907212646484375,-0.08602297306060791,-6.309703826904297,-5.631583213806152
1707603414490106600,15.926106689453125,5.010448455810547,-8.106216430664062,-2.245948553085327
1707603414509000700,15.945000732421875,8.919869422912598,-7.235003471374512,-0.5917675495147705
1707603414527894800,15.963894775390624,9.182231903076172,-6.2186408042907715,-0.43540096282958984
1707603414546788900,15.982788818359374,6.16684627532959,-4.480605125427246,0.27114009857177734
1707603414565683000,16.001682861328124,3.3035647869110107,-4.9365386962890625,-0.4186286926269531
1707603414584577000,16.020576904296874,1.9804027080535889,-3.4209957122802734,-0.5228824615478516
1707603414622365200,16.058365234375,-1.7825956344604492,5.9134626388549805,6.89762020111084
1707603414641259300,16.07725927734375,-5.547711372375488,8.177865982055664,7.511105060577393
1707603414660153300,16.0961533203125,-8.293890953063965,8.24394416809082,4.298534393310547
1707603414679047400,16.11504736328125,-8.75251579284668,5.834141731262207,2.012162208557129
1707603414697941500,16.13394140625,-7.363341808319092,2.3430490493774414,0.9204416275024414
1707603414716835600,16.152835693359375,-5.624027252197266,-2.2886219024658203,-2.1182007789611816
1707603414735729400,16.1717294921875,-1.6549127101898193,-6.3342413902282715,-5.876093864440918
1707603414754623500,16.19062353515625,5.43481969833374,-7.844095230102539,-7.775423049926758
1707603414773517600,16.209517578125,11.04360580444336,-8.015249252319336,-7.368576526641846
1707603414792411600,16.22841162109375,9.427847862243652,-6.8623199462890625,-5.869100570678711
1707603414811305700,16.2473056640625,4.962887287139893,-5.6236371994018555,-5.261058330535889
1707603414830199800,16.26619970703125,1.0291138887405396,-6.097836494445801,-4.085033416748047
1707603414849094000,16.285093994140624,0.9329347610473633,-4.559459209442139,0.8326058387756348
1707603414867988000,16.303988037109374,2.1539344787597656,-0.7108349800109863,8.59937858581543
1707603414886882000,16.322882080078124,1.1196223497390747,3.496084690093994,14.011966705322266
1707603414905776000,16.341776123046873,-2.6516213417053223,4.675971508026123,12.206975936889648
1707603414924670200,16.360670166015623,-5.744389057159424,5.461709499359131,8.468318939208984
1707603414943564300,16.379564208984377,-7.563070774078369,5.579037666320801,5.423768043518066
1707603414962458400,16.398458251953127,-7.826312065124512,3.553403377532959,2.249269962310791
1707603414981352400,16.4173525390625,-7.092698574066162,0.8115711212158203,-0.6822566986083984
1707603415000246500,16.43624658203125,-4.88360595703125,-1.8029499053955078,-3.426799774169922
1707603415019140600,16.455140625,-1.9889440536499023,-3.9102931022644043,-7.369742393493652
1707603415038034700,16.47403466796875,0.6004341840744019,-6.023007869720459,-10.955007553100586
1707603415056928800,16.4929287109375,3.1761908531188965,-7.188895225524902,-9.988037109375
1707603415075822600,16.511822509765626,5.10154390335083,-7.981344223022461,-6.5375823974609375
1707603415094716700,16.530716552734376,6.04654598236084,-8.30171012878418,-3.8228468894958496
1707603415113610800,16.54961083984375,5.445577621459961,-7.7031097412109375,-1.924455165863037
1707603415132504800,16.5685048828125,4.38715934753418,-5.264393329620361,1.9329829216003418
1707603415151399000,16.58739892578125,3.6580755710601807,0.6438050270080566,9.465919494628906
1707603415170293000,16.60629296875,0.7997355461120605,5.911050319671631,14.462350845336914
1707603415189187000,16.62518701171875,-4.354891300201416,6.978523254394531,13.767167091369629
1707603415208081200,16.6440810546875,-7.023645877838135,6.59519624710083,10.79349136352539
1707603415226975200,16.662975341796876,-7.9689788818359375,5.145999431610107,7.938253402709961
1707603415245869300,16.681869384765626,-7.276882171630859,1.9457073211669922,5.27666711807251
1707603415264763400,16.700763427734376,-5.528645038604736,-1.4905223846435547,2.9780821800231934
1707603415283657500,16.719657470703126,-3.7938084602355957,-4.873508453369141,-0.8521637916564941
1707603415302551600,16.738551513671876,-1.1511789560317993,-7.636263847351074,-6.547911643981934
1707603415321445600,16.757445556640626,0.42299914360046387,-8.170075416564941,-12.243837356567383
1707603415340339500,16.77633935546875,3.4117259979248047,-7.636447906494141,-12.95326042175293
1707603415359233500,16.795233642578125,5.77824068069458,-7.530877590179443,-9.830615997314453
1707603415378127600,16.814127685546875,5.6874237060546875,-7.330751419067383,-5.790746688842773
1707603415397021700,16.833021728515625,5.073666572570801,-6.433568000793457,-4.127861022949219
1707603415415915800,16.851915771484375,3.771754503250122,-3.587362051010132,-1.0701494216918945
1707603415434809900,16.870809814453125,2.890619993209839,1.1562414169311523,5.9362077713012695
1707603415453704000,16.889703857421875,0.1272677779197693,4.7299485206604,10.802392959594727
1707603415472598000,16.908597900390625,-4.205898761749268,5.9147491455078125,10.424712181091309
1707603415491492000,16.9274921875,-6.289614200592041,7.227226257324219,8.747610092163086
1707603415510386200,16.94638623046875,-7.06498384475708,6.78931999206543,6.9650702476501465
1707603415529280300,16.9652802734375,-7.377548694610596,3.793351173400879,4.9680562019348145
1707603415548174300,16.98417431640625,-6.287039279937744,0.8343753814697266,1.1446733474731445
1707603415567068400,17.003068359375,-4.355545520782471,-2.5480289459228516,-2.5387120246887207
1707603415585962500,17.02196240234375,-0.7015209197998047,-5.152328014373779,-8.276427268981934
1707603415623750700,17.059750732421875,3.476191282272339,-7.101067543029785,-13.850015640258789
1707603415642644700,17.078644775390625,2.790743350982666,-8.149128913879395,-10.386554718017578
1707603415661538800,17.097538818359375,2.354133129119873,-9.481931686401367,-6.143294334411621
1707603415680432600,17.1164326171875,3.6326420307159424,-9.047872543334961,-2.739806652069092
1707603415699326700,17.13532666015625,4.156485557556152,-6.944657325744629,2.810898780822754
1707603415718220800,17.154220703125,6.0024027824401855,-0.7238636016845703,14.26266098022461
1707603415737115000,17.173114990234374,3.656857490539551,4.287502765655518,21.30221939086914
1707603415756009000,17.192009033203124,-1.869431972503662,4.586524486541748,18.730342864990234
1707603415774903000,17.210903076171874,-5.297126293182373,4.459212303161621,13.775541305541992
1707603415793797000,17.229797119140624,-7.490159034729004,3.878974437713623,9.319866180419922
1707603415812691200,17.248691162109374,-7.805594444274902,1.6122503280639648,4.3070573806762695
1707603415831585300,17.267585205078124,-6.904802322387695,-1.1818962097167969,-0.717473030090332
1707603415850479400,17.286479248046874,-4.858493804931641,-3.694066047668457,-5.029172897338867
1707603415869373400,17.30537353515625,-2.1250624656677246,-5.725363731384277,-8.766484260559082
1707603415888267500,17.324267578125,0.970064640045166,-7.291245460510254,-11.615936279296875
1707603415907161600,17.34316162109375,5.164044380187988,-8.649521827697754,-11.883499145507812
1707603415926055700,17.3620556640625,8.155858993530273,-9.244791984558105,-10.466087341308594
1707603415944949500,17.380949462890626,6.8569746017456055,-9.961382865905762,-7.848595142364502
1707603415963843600,17.399843505859376,4.426456451416016,-9.540230751037598,-5.7730865478515625
1707603415982737700,17.418737548828126,2.750105619430542,-5.767411231994629,-0.6639213562011719
1707603416001631700,17.4376318359375,1.291042447090149,0.37828922271728516,7.352020263671875
1707603416020525800,17.45652587890625,-2.182183265686035,5.274877071380615,13.016888618469238
1707603416039420000,17.475419921875,-5.7897562980651855,6.3741559982299805,12.535977363586426
1707603416058314000,17.49431396484375,-7.551220893859863,8.62887954711914,10.935315132141113
1707603416077208000,17.5132080078125,-9.048518180847168,7.999244689941406,8.291961669921875
1707603416096102100,17.53210205078125,-9.755105972290039,4.526905059814453,3.8184311389923096
1707603416114996200,17.550996337890624,-8.774757385253906,0.48981571197509766,-2.4897918701171875
1707603416133890300,17.569890380859373,-7.000340461730957,-3.430846691131592,-6.388799667358398
1707603416152784400,17.588784423828123,-3.5461719036102295,-5.594277381896973,-10.141934394836426
1707603416171678500,17.607678466796877,1.2515711784362793,-6.852317810058594,-11.057039260864258
1707603416190572500,17.626572509765627,4.837807655334473,-8.065312385559082,-9.306488037109375
1707603416209466600,17.645466552734376,7.048805236816406,-9.638236045837402,-6.859980583190918
1707603416228360400,17.6643603515625,7.920194625854492,-10.161457061767578,-4.624139785766602
1707603416247254500,17.683254638671876,7.186201095581055,-9.532247543334961,-4.555783271789551
1707603416266148600,17.702148681640626,4.222719192504883,-8.000799179077148,-2.905930280685425
1707603416285042700,17.721042724609376,3.683649778366089,-3.1262083053588867,3.7232842445373535
1707603416303936800,17.739936767578126,0.6469392776489258,2.779313087463379,12.112356185913086
1707603416322830800,17.758830810546876,-3.848856210708618,6.161444187164307,14.185537338256836
1707603416341725000,17.777724853515625,-7.525782585144043,8.331602096557617,13.556654930114746
1707603416360619000,17.796618896484375,-10.670900344848633,9.144006729125977,7.0207719802856445
1707603416379513000,17.81551318359375,-12.461816787719727,7.889636993408203,2.099155902862549
1707603416398407200,17.8344072265625,-11.593839645385742,4.263707160949707,-2.055239677429199
1707603416417301200,17.85330126953125,-9.392385482788086,0.02317047119140625,-3.1340599060058594
1707603416436195300,17.8721953125,-6.04182767868042,-3.9229202270507812,-3.567919969558716
1707603416455089400,17.89108935546875,-2.438939332962036,-7.245731353759766,-4.754721641540527
1707603416473983500,17.9099833984375,3.043236494064331,-10.728763580322266,-8.586748123168945
1707603416492877600,17.928877685546876,8.095266342163086,-12.7059326171875,-8.471946716308594
1707603416511771400,17.947771484375,11.778216361999512,-12.38571834564209,-5.738490581512451
1707603416530665500,17.96666552734375,10.126688003540039,-10.668407440185547,-4.103743076324463
1707603416549559600,17.9855595703125,6.525373458862305,-8.698860168457031,-1.624974250793457
1707603416568453600,18.00445361328125,3.6108834743499756,-3.5467748641967773,4.069276809692383
1707603416587347700,18.02334765625,0.09984800219535828,3.749448299407959,10.266714096069336
1707603416606241800,18.04224169921875,-6.183216571807861,9.240007400512695,13.376901626586914
1707603416644030000,18.080030029296875,-12.399206161499023,9.695130348205566,4.632931232452393
1707603416662924000,18.098924072265625,-11.042634963989258,6.696184158325195,2.285676956176758
1707603416681818000,18.117818115234375,-8.819313049316406,2.5562667846679688,1.0081963539123535
1707603416700712200,18.136712158203125,-5.868259906768799,-1.46893310546875,0.12729763984680176
1707603416719606000,18.15560595703125,-4.033082962036133,-5.496129035949707,-1.8801850080490112
1707603416738500000,18.1745,-0.3031010627746582,-8.70375919342041,-5.94173526763916
1707603416757394200,18.193394287109374,3.8895866870880127,-9.78762149810791,-6.262811660766602
1707603416776288300,18.212288330078124,8.689706802368164,-11.13720417022705,-3.553832769393921
1707603416795182300,18.231182373046874,9.970710754394531,-10.900411605834961,-1.8549764156341553
1707603416814076400,18.250076416015624,8.651579856872559,-9.30107593536377,-2.27897310256958
1707603416832970500,18.268970458984374,6.648507595062256,-6.3044281005859375,-1.5092384815216064
1707603416851864600,18.287864501953123,4.265650272369385,-2.9986486434936523,0.8675949573516846
1707603416870758700,18.306758544921873,0.6473167538642883,0.18002033233642578,3.3263802528381348
1707603416889652700,18.32565283203125,-1.6815478801727295,4.339753150939941,5.337228775024414
1707603416908546800,18.344546875,-5.4394354820251465,8.481670379638672,6.254701614379883
1707603416927441000,18.36344091796875,-9.25245189666748,10.433076858520508,3.603482723236084
1707603416946335000,18.3823349609375,-11.887882232666016,8.177633285522461,0.7799501419067383
1707603416965229000,18.40122900390625,-10.918694496154785,4.375796318054199,-0.3848457336425781
1707603416984123100,18.420123046875,-8.21454906463623,0.8522825241088867,-1.9630646705627441
1707603417003017000,18.439016845703126,-5.24411678314209,-2.0729598999023438,-2.7851624488830566
1707603417021911000,18.4579111328125,-2.4568142890930176,-4.119400978088379,-3.8952889442443848
1707603417040805000,18.47680517578125,-0.5673019886016846,-5.7430243492126465,-6.986105918884277
1707603417059699200,18.49569921875,2.904238700866699,-6.370619773864746,-9.849852561950684
1707603417078593300,18.51459326171875,3.6958677768707275,-7.371969699859619,-9.898591995239258
1707603417097487400,18.5334873046875,5.8371453285217285,-8.204484939575195,-7.4846320152282715
1707603417116381400,18.55238134765625,6.785152912139893,-8.540338516235352,-4.6009039878845215
1707603417135275500,18.571275634765627,4.1053571701049805,-8.318111419677734,-3.2333123683929443
1707603417154169600,18.590169677734377,1.5165239572525024,-3.717906951904297,-1.4205207824707031
1707603417173063700,18.609063720703126,-1.001158595085144,0.8693742752075195,5.591655731201172
1707603417191957800,18.627957763671876,-2.939974308013916,3.9572248458862305,13.261724472045898
1707603417210851800,18.646851806640626,-5.267147064208984,4.5084004402160645,15.329621315002441
1707603417229745700,18.66574560546875,-5.148086071014404,4.789763450622559,12.640983581542969
1707603417248639700,18.6846396484375,-3.935142993927002,6.035709381103516,10.976810455322266
1707603417267533800,18.703533935546876,-5.856169700622559,3.880302906036377,6.167414665222168
1707603417286428000,18.722427978515626,-5.650867938995361,1.1934003829956055,2.3215794563293457
1707603417305322000,18.741322021484375,-4.704931259155273,-1.1893768310546875,0.16677188873291016
1707603417324216000,18.760216064453125,-4.293082237243652,-3.555813789367676,-3.4822115898132324
1707603417343110100,18.779110107421875,-2.630192756652832,-5.362819671630859,-7.560856342315674
1707603417362004200,18.798004150390625,0.4265248775482178,-7.01722526550293,-10.561362266540527
1707603417380898300,18.816898193359375,4.670252323150635,-8.374490737915039,-11.093957901000977
1707603417399792400,18.83579248046875,6.686577796936035,-9.281245231628418,-8.132074356079102
1707603417418686500,18.8546865234375,6.656198501586914,-9.91142463684082,-4.779330730438232
1707603417437580500,18.87358056640625,4.214454650878906,-8.989155769348145,-0.8523945808410645
1707603417456474600,18.892474609375,3.9951939582824707,-4.643150806427002,4.057774543762207
1707603417475368700,18.91136865234375,2.5006937980651855,0.9202098846435547,8.267723083496094
1707603417494262500,18.930262451171874,-0.9147536754608154,5.551333904266357,10.102712631225586
1707603417513156600,18.949156494140624,-4.4474945068359375,8.631362915039062,10.47525405883789
1707603417532050700,18.96805078125,-7.773298263549805,10.516317367553711,9.076971054077148
1707603417550944800,18.98694482421875,-9.980592727661133,8.88434886932373,6.6897501945495605
1707603417569838800,19.0058388671875,-9.97684383392334,4.752742767333984,5.361616611480713
1707603417588733000,19.02473291015625,-8.827118873596191,-0.0018377304077148438,1.2422966957092285
1707603417607627000,19.043626953125,-7.007205963134766,-3.3567452430725098,-4.903281211853027
1707603417626521000,19.06252099609375,-3.219306230545044,-6.158359527587891,-7.900596618652344
1707603417645415200,19.081415283203125,1.0949223041534424,-9.023679733276367,-8.178829193115234
1707603417664309200,19.100309326171875,6.473195552825928,-11.952925682067871,-6.556471824645996
1707603417683203300,19.119203369140624,10.517709732055664,-13.904337882995605,-5.121996879577637
1707603417702097400,19.138097412109374,10.497834205627441,-12.646490097045898,-2.5908405780792236
1707603417720991200,19.1569912109375,5.283079624176025,-10.822345733642578,-1.3978402614593506
1707603417739885300,19.17588525390625,1.2762774229049683,-6.125219345092773,1.111351490020752
1707603417758779400,19.194779296875,0.14420390129089355,0.6905117034912109,5.411098003387451
1707603417777673500,19.213673583984374,-2.045016050338745,4.021981716156006,8.31930160522461
1707603417796567600,19.232567626953124,-4.18284797668457,6.185492038726807,9.736862182617188
1707603417815461600,19.251461669921873,-5.760961532592773,9.832404136657715,9.861305236816406
1707603417834355700,19.270355712890623,-8.356470108032227,11.65151596069336,8.296297073364258
1707603417853249800,19.289249755859377,-11.086380958557129,6.888895034790039,5.9506707191467285
1707603417872144000,19.308143798828127,-10.245258331298828,1.7096214294433594,2.4535019397735596
1707603417891038000,19.327037841796876,-8.19895076751709,-2.289639472961426,-0.32440972328186035
1707603417909932000,19.34593212890625,-4.923712253570557,-4.520695686340332,-2.417949676513672
1707603417928826000,19.364826171875,-1.4927629232406616,-5.992711544036865,-4.091949462890625
1707603417947720000,19.383719970703126,1.8650660514831543,-6.858686447143555,-4.406026840209961
1707603417966614000,19.402614013671876,4.170453071594238,-8.542984962463379,-4.212754249572754
1707603417985508000,19.421508056640626,7.234806060791016,-9.788662910461426,-4.805453300476074
1707603418004402200,19.440402099609376,8.440131187438965,-9.517005920410156,-4.808907508850098
1707603418023296300,19.459296142578125,6.917660713195801,-8.36561393737793,-3.9994192123413086
1707603418042190300,19.4781904296875,5.212118625640869,-7.969931602478027,-2.643558979034424
1707603418061084400,19.49708447265625,3.7346010208129883,-6.28460168838501,-1.7406086921691895
1707603418079978500,19.515978515625,2.5582292079925537,-2.9099035263061523,0.6234536170959473
1707603418098872600,19.53487255859375,0.44090408086776733,1.025442123413086,4.865090370178223
1707603418117766700,19.5537666015625,-2.986063003540039,4.388821601867676,5.8056840896606445
1707603418136660700,19.57266064453125,-6.444814682006836,7.189395904541016,4.358736038208008
1707603418155554600,19.591554443359374,-8.974021911621094,11.061899185180664,4.121784210205078
1707603418174448600,19.61044873046875,-11.905340194702148,11.144746780395508,2.443934440612793
1707603418193342700,19.6293427734375,-12.68809986114502,7.0130510330200195,1.2812799215316772
1707603418212236800,19.64823681640625,-10.385438919067383,1.9299030303955078,0.612092137336731
1707603418231131000,19.667130859375,-6.0409345626831055,-2.5243682861328125,0.08311891555786133
1707603418250025000,19.68602490234375,-1.0237199068069458,-4.912817001342773,-1.4329195022583008
1707603418268919000,19.7049189453125,2.8659777641296387,-6.792028903961182,-3.5240836143493652
1707603418287813000,19.723813232421875,4.945448875427246,-8.402111053466797,-4.083021640777588
1707603418306707200,19.742707275390625,6.485326290130615,-9.805304527282715,-2.453315258026123
1707603418325601300,19.761601318359375,6.588286399841309,-10.171801567077637,-0.8506245613098145
1707603418344495400,19.780495361328125,5.667762756347656,-10.03748893737793,-1.7277135848999023
1707603418363389400,19.799389404296875,4.390153884887695,-8.0767822265625,-2.4562292098999023
1707603418382283300,19.818283203125,1.8459542989730835,-4.5214362144470215,-2.8596229553222656
1707603418401177300,19.83717724609375,-0.39899396896362305,0.5453968048095703,-2.9924025535583496
1707603418420071400,19.856071533203124,-2.667724370956421,3.670400619506836,-2.328493118286133
1707603418438965500,19.874965576171874,-4.344820499420166,5.547974586486816,0.15932071208953857
1707603418457859600,19.893859619140624,-5.501509666442871,8.858765602111816,2.2147412300109863
1707603418476753700,19.912753662109374,-6.69751501083374,10.63205337524414,3.8199052810668945
1707603418495647700,19.931647705078124,-7.957222938537598,8.7416410446167,4.000992298126221
1707603418514541800,19.950541748046874,-8.239147186279297,5.382865905761719,3.720482587814331
1707603418533436000,19.969435791015623,-7.181546211242676,2.3887863159179688,1.9031645059585571
1707603418552330000,19.988330078125,-5.692892551422119,-0.9991683959960938,0.18605977296829224
1707603418571224000,20.00722412109375,-5.100937843322754,-4.621089935302734,-2.4559130668640137
1707603418590118000,20.026117919921877,-1.9817309379577637,-6.828845500946045,-4.7887797355651855
1707603418609012000,20.045011962890626,5.431051254272461,-7.7397871017456055,-4.696404933929443
1707603418627906000,20.063906005859376,9.687828063964844,-8.020352363586426,-2.3259153366088867
1707603418646800100,20.082800048828126,10.722542762756348,-8.83617115020752,0.14721465110778809
1707603418665694200,20.101694091796876,6.6886515617370605,-9.114748001098633,1.15468168258667
1707603418684588300,20.12058837890625,2.064117670059204,-5.818747043609619,1.1967203617095947
1707603418703482400,20.139482421875,-1.3006439208984375,1.0098533630371094,-0.04382443428039551
1707603418722376400,20.15837646484375,-5.026837348937988,7.60981559753418,-1.866342306137085
1707603418741270500,20.1772705078125,-8.59776782989502,10.442529678344727,-1.766761064529419
1707603418760164600,20.19616455078125,-10.830421447753906,9.208900451660156,-1.0184345245361328
1707603418779058700,20.21505859375,-10.441092491149902,7.064209938049316,0.19298100471496582
1707603418797952500,20.233952392578125,-8.23122501373291,3.740983009338379,0.6848921775817871
1707603418816846600,20.2528466796875,-4.628167629241943,-0.933192253112793,-0.5125057697296143
1707603418835740700,20.27174072265625,0.8359276056289673,-4.082834243774414,-2.2572460174560547
1707603418854634800,20.290634765625,4.943754196166992,-6.850996971130371,-3.7296180725097656
1707603418873528800,20.30952880859375,8.048233032226562,-8.645760536193848,-3.787735939025879
1707603418892423000,20.3284228515625,8.174118041992188,-8.85661792755127,-2.290029525756836
1707603418911317000,20.34731689453125,6.886904716491699,-7.573822498321533,-0.7214760780334473
1707603418930211000,20.366211181640626,4.934293746948242,-6.593797206878662,-0.5798230171203613
1707603418949105200,20.385105224609376,2.8778538703918457,-5.51017427444458,0.20325613021850586
1707603418967999200,20.403999267578126,0.20202839374542236,-1.8447632789611816,2.4976673126220703
1707603418986893000,20.42289306640625,-2.422853469848633,2.7213058471679688,4.495662212371826
1707603419005787100,20.441787109375,-5.171331405639648,6.161466598510742,8.045269012451172
1707603419024681200,20.46068115234375,-7.415727615356445,6.33378791809082,3.7787842750549316
1707603419043575300,20.4795751953125,-7.441225051879883,6.428279876708984,2.4536075592041016
1707603419062469400,20.498469482421875,-6.0007123947143555,5.598377227783203,0.4381742477416992
1707603419081363500,20.517363525390625,-4.0593581199646,3.2734909057617188,-1.952254295349121
1707603419100257500,20.536257568359375,-1.9502495527267456,1.0878987312316895,-5.527562618255615
1707603419119151600,20.555151611328125,-0.17619401216506958,-1.0493206977844238,-8.457749366760254
1707603419138045700,20.574045654296874,5.285792350769043,-2.440859317779541,-8.291430473327637
1707603419156939800,20.592939697265624,5.864109039306641,-4.510527610778809,-7.017852783203125
1707603419175833900,20.611833740234374,4.544476509094238,-5.173862457275391,-5.850574493408203
1707603419194728000,20.63072802734375,3.1841084957122803,-4.660435676574707,-4.370425224304199
1707603419213621800,20.649621826171874,2.8496053218841553,-3.3765554428100586,0.6919078826904297
1707603419232515800,20.668515869140624,1.9629909992218018,-0.1742229461669922,9.423999786376953
1707603419251410000,20.687409912109374,-2.004436492919922,0.6539828777313232,11.24001693725586
1707603419270304000,20.706303955078123,-4.220344543457031,0.7567348480224609,11.04902458190918
1707603419289198000,20.725197998046873,-2.627424955368042,-0.11693620681762695,10.408409118652344
1707603419308092200,20.744092041015627,-0.64253830909729,-0.6877892017364502,7.344884872436523
1707603419326986200,20.762986328125,-0.4402838945388794,-1.20595121383667,3.3434619903564453
1707603419345880300,20.78188037109375,-1.970226764678955,-1.1714797019958496,-0.8141851425170898
1707603419364774100,20.800774169921876,-1.9456305503845215,-0.5227460861206055,-2.5878286361694336
1707603419383668200,20.819668212890626,-1.8435797691345215,-0.32260560989379883,-3.157766342163086
1707603419402562300,20.838562255859376,-1.92650306224823,0.06165122985839844,-4.940227031707764
1707603419421456400,20.857456298828126,-1.7433843612670898,0.6428518295288086,-6.841451168060303
1707603419440350500,20.8763505859375,-1.6448746919631958,1.2698349952697754,-7.314078330993652
1707603419459244500,20.89524462890625,-1.7023921012878418,1.3284101486206055,-6.694462776184082
1707603419478138600,20.914138671875,-1.3430395126342773,1.32338285446167,-4.823634624481201
1707603419497032700,20.93303271484375,-1.0133267641067505,1.216951847076416,-3.11940860748291
1707603419515926800,20.9519267578125,-0.4775606393814087,1.185396432876587,-0.36616992950439453
1707603419534820900,20.97082080078125,-0.5560960173606873,0.9778475761413574,3.9509410858154297
1707603419553715000,20.98971484375,-0.7216319441795349,-0.03646397590637207,7.539693832397461
1707603419572609000,21.008609130859377,0.6957236528396606,-1.6349833011627197,9.70857048034668
1707603419591502800,21.0275029296875,2.423156261444092,-2.889378309249878,7.695965766906738
1707603419610397000,21.04639697265625,2.3057408332824707,-2.783256769180298,4.275702476501465
1707603419648185000,21.08418505859375,-1.9063611030578613,-1.2475249767303467,-1.9987430572509766
1707603419667079200,21.1030791015625,-2.3331165313720703,-0.2377936840057373,-4.089535713195801
1707603419685973200,21.12197314453125,-2.1684114933013916,1.099301815032959,-5.64829158782959
1707603419704867300,21.140867431640626,-2.768007755279541,1.5427379608154297,-6.820852279663086
1707603419723761400,21.159761474609375,-2.727142572402954,1.96260404586792,-7.2482428550720215
1707603419742655500,21.178655517578125,-2.048104763031006,1.31453275680542,-5.551462650299072
1707603419761549300,21.19754931640625,-0.5512689352035522,0.5517258644104004,-4.086382865905762
1707603419780443400,21.216443359375,1.4862899780273438,0.33271265029907227,-0.44089698791503906
1707603419799337500,21.23533740234375,2.4754769802093506,0.019439697265625,4.906342506408691
1707603419818231600,21.2542314453125,2.1133811473846436,-0.4225654602050781,9.546671867370605
1707603419837125600,21.273125732421875,1.315777063369751,-1.3775081634521484,11.98450756072998
1707603419856019700,21.292019775390624,0.4487466812133789,-2.255667209625244,11.163368225097656
1707603419874913800,21.310913818359374,-0.5866618156433105,-2.072798013687134,8.380014419555664
1707603419893807900,21.329807861328124,-1.320202350616455,-1.9810755252838135,5.676590919494629
1707603419912701700,21.34870166015625,-2.314810037612915,-2.0612099170684814,2.76303768157959
1707603419931595800,21.367595703125,-2.8830926418304443,-2.6763219833374023,0.02299785614013672
1707603419950489900,21.38648974609375,-2.7012851238250732,-3.368055820465088,-3.1627726554870605
1707603419969384000,21.405384033203124,-1.2724709510803223,-2.8863277435302734,-5.979345798492432
1707603419988278000,21.424278076171873,0.2716965675354004,-2.322242498397827,-7.150001049041748
1707603420007172000,21.443172119140623,1.764195203781128,-1.5752649307250977,-6.813819408416748
1707603420026066200,21.462066162109377,1.470785140991211,-1.5499258041381836,-6.2169036865234375
1707603420044960300,21.480960205078127,1.9823055267333984,-0.5221047401428223,-5.591263294219971
1707603420063854300,21.499854248046876,1.9022035598754883,0.5737209320068359,-5.689208507537842
1707603420082748400,21.51874853515625,2.228046417236328,1.706261396408081,-4.2789716720581055
1707603420101642500,21.537642578125,2.200744152069092,2.6301681995391846,-1.9647026062011719
1707603420120536300,21.556536376953126,0.5998907089233398,4.073197841644287,-0.2613859176635742
1707603420139430400,21.575430419921876,-2.1035451889038086,5.667990207672119,0.9792518615722656
1707603420158324500,21.594324462890626,-4.677977085113525,5.848779678344727,4.543783187866211
1707603420177218600,21.613218505859376,-6.558588027954102,4.377239227294922,4.445854187011719
1707603420196112600,21.632112548828125,-6.382821083068848,2.51318097114563,6.471386909484863
1707603420215006700,21.6510068359375,-4.274382591247559,0.18631553649902344,7.448071479797363
1707603420233900800,21.66990087890625,-1.9444177150726318,-2.4240310192108154,9.157866477966309
1707603420252795000,21.688794921875,-1.003011703491211,-4.668846607208252,10.436726570129395
1707603420271689000,21.70768896484375,0.32015275955200195,-7.073699474334717,10.281560897827148
1707603420290583000,21.7265830078125,3.6159145832061768,-8.562475204467773,7.799347877502441
1707603420309476900,21.745476806640625,4.014419078826904,-9.341625213623047,3.333651542663574
1707603420328371000,21.764370849609374,3.5477542877197266,-8.636984825134277,-1.592081069946289
1707603420347265000,21.78326513671875,2.2632968425750732,-6.3972272872924805,-5.323915004730225
1707603420366159000,21.8021591796875,0.8923013210296631,-4.728057861328125,-8.294715881347656
1707603420385053200,21.82105322265625,0.5033998489379883,-3.759504795074463,-9.74053955078125
1707603420403947300,21.839947265625,2.0319020748138428,-2.4303274154663086,-9.799887657165527
1707603420422841300,21.85884130859375,2.7690117359161377,-2.742206573486328,-8.233552932739258
1707603420441735400,21.8777353515625,2.753251075744629,-3.6164002418518066,-6.871541976928711
1707603420460629200,21.896629150390623,4.261456489562988,-3.0101475715637207,-3.7343621253967285
1707603420479523300,21.9155234375,5.187463760375977,-1.4099555015563965,0.30725622177124023
1707603420498417400,21.93441748046875,2.1648311614990234,0.492034912109375,2.532604694366455
1707603420517311500,21.9533115234375,-0.04632902145385742,2.616668224334717,3.3424148559570312
1707603420536205600,21.97220556640625,-1.3942956924438477,4.026645660400391,4.411750793457031
1707603420555099600,21.991099609375,-3.640293598175049,4.187586307525635,6.013728141784668
1707603420573993700,22.00999365234375,-5.786964416503906,3.98146915435791,3.942384719848633
1707603420592887800,22.0288876953125,-6.2557501792907715,2.8191416263580322,3.7170019149780273
1707603420611782000,22.047781982421874,-5.452572822570801,1.545137882232666,4.978714942932129
1707603420649569800,22.08556982421875,-2.2968950271606445,-1.096625804901123,8.614612579345703
1707603420668463900,22.1044638671875,-0.6535276174545288,-3.588252305984497,8.64255142211914
1707603420687358000,22.12335791015625,0.17920851707458496,-6.122786045074463,8.631387710571289
1707603420706252000,22.142251953125,2.4311583042144775,-6.506448745727539,6.653696060180664
1707603420725146000,22.16114599609375,1.7438430786132812,-6.151545524597168,3.6556644439697266
1707603420744040200,22.180040283203127,0.42728590965270996,-5.790128231048584,0.8445239067077637
1707603420762934300,22.198934326171877,-0.8165445327758789,-5.782623291015625,-0.6549882888793945
1707603420781828400,22.217828369140626,0.8858203887939453,-4.3979692459106445,-8.164952278137207
1707603420800722400,22.236722412109376,-0.7547733783721924,-2.079183578491211,-10.165582656860352
1707603420819616300,22.2556162109375,0.9748919010162354,-1.5820302963256836,-11.938751220703125
1707603420838510300,22.27451025390625,2.12081241607666,-1.9377555847167969,-8.980915069580078
1707603420857404400,22.293404296875,4.39359712600708,-2.7225749492645264,-7.773754596710205
1707603420876298500,22.312298583984376,4.597678184509277,-2.3469491004943848,-5.847138404846191
1707603420895192600,22.331192626953126,4.565154075622559,-1.0634665489196777,-2.641324520111084
1707603420914086700,22.350086669921875,3.794312000274658,0.9890580177307129,2.9350080490112305
1707603420932980700,22.368980712890625,1.4134495258331299,3.3152148723602295,7.866680145263672
1707603420951874800,22.387874755859375,-2.472693920135498,4.0810065269470215,7.828300476074219
1707603420970769000,22.406768798828125,-5.272439479827881,3.3892712593078613,7.007189750671387
1707603420989662700,22.425662841796875,-4.842629432678223,2.3757095336914062,7.978272438049316
1707603421008556800,22.444556884765625,-3.1249122619628906,1.1261792182922363,8.597943305969238
1707603421027451000,22.463450927734375,-1.8592503070831299,-0.28551387786865234,9.325986862182617
1707603421046345000,22.482344970703124,-1.314955711364746,-2.767366886138916,10.00881576538086
1707603421065239000,22.501239013671874,-0.675674557685852,-6.011375904083252,8.50421142578125
1707603421084133000,22.520133056640624,0.04010605812072754,-7.000648498535156,5.126184940338135
1707603421103027200,22.539027099609374,-0.30862927436828613,-6.901429653167725,1.2129621505737305
1707603421121921300,22.55792138671875,0.8880705833435059,-6.222670078277588,-3.6601197719573975
1707603421140815400,22.5768154296875,1.5085606575012207,-4.734541893005371,-5.775992393493652
1707603421159709200,22.595709228515624,2.2370941638946533,-4.511394500732422,-8.627603530883789
1707603421178603300,22.614603271484373,1.1509571075439453,-5.322207450866699,-11.685507774353027
1707603421197497300,22.633497314453123,0.8506789207458496,-4.978170394897461,-11.36198616027832
1707603421216391400,22.652391357421877,2.5226757526397705,-5.08207893371582,-8.724509239196777
1707603421235285500,22.671285400390627,3.864048719406128,-5.305344104766846,-6.345761775970459
1707603421254179600,22.6901796875,4.983681678771973,-3.816110849380493,-1.857527256011963
1707603421273073700,22.70907373046875,5.894296646118164,-0.046679019927978516,5.267498970031738
1707603421291967500,22.727967529296876,4.568553924560547,4.075743675231934,12.690450668334961
1707603421310861600,22.746861572265626,-0.15239566564559937,4.6783623695373535,14.986457824707031
1707603421329755600,22.765755615234376,-4.2666015625,3.5091042518615723,13.60522747039795
1707603421348649700,22.784649658203126,-6.053796768188477,2.4368343353271484,11.570363998413086
1707603421367543800,22.803543701171876,-6.943299293518066,0.1652660369873047,7.882823467254639
1707603421386438000,22.82243798828125,-6.0876007080078125,-2.691434383392334,4.531195163726807
1707603421405332000,22.84133203125,-3.3395347595214844,-4.492428779602051,2.2170307636260986
1707603421424226000,22.86022607421875,-1.7996156215667725,-5.5681891441345215,-0.3360356092453003
1707603421443120000,22.8791201171875,-0.5681718587875366,-5.730983257293701,-2.8940114974975586
1707603421462014000,22.898013916015625,1.3375966548919678,-5.7404680252075195,-4.021884441375732
1707603421480908000,22.916907958984375,2.9893269538879395,-5.771828651428223,-4.436948299407959
1707603421499802000,22.935802001953125,3.7087299823760986,-6.530817031860352,-5.141016960144043
1707603421518696200,22.9546962890625,4.2906389236450195,-7.442752838134766,-5.854693412780762
1707603421537590300,22.97359033203125,5.331060409545898,-6.776034355163574,-6.547353744506836
1707603421556484400,22.992484375,5.134128570556641,-5.2379584312438965,-5.217926025390625
1707603421575378400,23.01137841796875,4.000309467315674,-3.1610612869262695,-2.4138264656066895
1707603421594272500,23.0302724609375,2.7708075046539307,-0.5680608749389648,1.0331974029541016
1707603421613166300,23.049166259765624,0.483617901802063,2.7406740188598633,4.031987190246582
1707603421650954500,23.08695458984375,-6.566699981689453,7.95433235168457,8.094390869140625
1707603421669848600,23.1058486328125,-8.629720687866211,7.513775825500488,5.943023681640625
1707603421688742700,23.12474267578125,-8.33094596862793,5.610569000244141,2.793191432952881
1707603421707636700,23.14363671875,-6.795803070068359,3.0700559616088867,0.767520010471344
1707603421726530800,23.16253076171875,-4.7673020362854,-0.08394145965576172,-0.5839711427688599
1707603421745425000,23.1814248046875,-3.178565263748169,-2.3921585083007812,-1.4436817169189453
1707603421764319000,23.200319091796874,-2.106083869934082,-4.320017337799072,-2.4237005710601807
1707603421783212800,23.219212890625,-0.8588542938232422,-5.5161285400390625,-2.765843629837036
1707603421802107000,23.23810693359375,0.5158584117889404,-6.054295063018799,-3.2961652278900146
1707603421821001000,23.2570009765625,1.2759392261505127,-6.128204822540283,-4.214358806610107
1707603421839895000,23.27589501953125,1.279308557510376,-4.816194534301758,-5.074197769165039
1707603421858789000,23.2947890625,1.1724019050598145,-2.6674699783325195,-5.333098411560059
1707603421877683200,23.31368310546875,0.8189897537231445,-0.7900590896606445,-6.468695163726807
1707603421896577300,23.332577392578123,0.3445591926574707,1.079594612121582,-5.557417392730713
1707603421915471400,23.351471435546873,-1.379433512687683,1.812906265258789,-1.5246870517730713
1707603421934365200,23.370365234375,-2.3458738327026367,2.2502479553222656,1.668483018875122
1707603421953259300,23.38925927734375,-2.957690715789795,3.6715850830078125,2.1390011310577393
1707603421972153300,23.4081533203125,-4.228958606719971,2.884885787963867,0.018732070922851562
1707603421991047400,23.42704736328125,-5.248082160949707,0.6407785415649414,-1.6337664127349854
1707603422009941500,23.44594140625,-5.070358753204346,-1.7565617561340332,-1.9470584392547607
1707603422028835600,23.464835693359376,-3.6399738788604736,-3.034445285797119,-0.7722339630126953
1707603422047729400,23.4837294921875,-1.7713007926940918,-2.9485268592834473,0.3278810977935791
1707603422066623500,23.50262353515625,-0.3074159622192383,-2.7764883041381836,1.000007152557373
1707603422085517600,23.521517578125,1.3830084800720215,-2.8489394187927246,1.4607300758361816
1707603422104411600,23.54041162109375,2.5664334297180176,-3.556868076324463,2.5398731231689453
1707603422123305700,23.5593056640625,4.205380439758301,-4.39649772644043,2.3803892135620117
1707603422142199800,23.57819970703125,6.859375953674316,-6.250394821166992,1.0763885974884033
1707603422161094000,23.597093994140625,7.4347052574157715,-6.188682556152344,1.934314250946045
1707603422179988000,23.615988037109375,4.14233922958374,-5.781540393829346,3.6904869079589844
1707603422198882000,23.634882080078125,3.8776206970214844,-4.4712395668029785,0.615018367767334
1707603422217775900,23.65377587890625,6.9725341796875,-2.550992488861084,0.8893985748291016
1707603422236670000,23.672669921875,6.433356285095215,-2.930037260055542,1.5143179893493652
1707603422255564000,23.69156396484375,3.8319344520568848,-2.847334384918213,2.6468257904052734
1707603422274458000,23.7104580078125,0.08465814590454102,-2.718717575073242,3.0463080406188965
1707603422293352200,23.729352294921874,-0.2073659896850586,-1.650843858718872,2.044095039367676
1707603422312246300,23.748246337890624,-0.7387924194335938,-1.1490821838378906,2.0230860710144043
1707603422331140400,23.767140380859374,-2.186802387237549,-1.0201568603515625,2.1792397499084473
1707603422350034400,23.786034423828124,-3.3961567878723145,-0.49515199661254883,1.353318691253662
1707603422368928300,23.80492822265625,-3.5339744091033936,0.3339853286743164,0.32736659049987793
1707603422387822300,23.823822265625,-3.291630268096924,1.7280516624450684,-1.1540257930755615
1707603422406716400,23.84271630859375,-1.9181263446807861,2.303008556365967,-2.059530735015869
1707603422425610500,23.861610595703127,-1.026975154876709,1.9230422973632812,-2.3518667221069336
1707603422444504600,23.880504638671876,0.23691940307617188,1.2948737144470215,-1.1615986824035645
1707603422463398700,23.899398681640626,0.3673710823059082,1.0293998718261719,-0.7350592613220215
1707603422482292500,23.91829248046875,0.22045326232910156,0.7124972343444824,-1.0860848426818848
1707603422501186600,23.9371865234375,-0.16829824447631836,0.18511390686035156,-0.7679712772369385
1707603422520080600,23.95608056640625,-0.22675657272338867,0.9919953346252441,-0.29230213165283203
1707603422538974700,23.974974609375,-0.6363101005554199,6.593355178833008,-0.12908196449279785
1707603422557869600,23.99386962890625,-2.695571184158325,2.619091033935547,-0.2560720443725586
1707603422576763400,24.012763427734374,-3.456109046936035,-0.5118231773376465,0.5941054821014404
1707603422595657500,24.031657470703124,-0.5930624008178711,-1.035348892211914,0.5964581966400146
1707603422614551600,24.050551513671873,1.0963001251220703,-0.6571979522705078,0.5687253475189209
1707603422652339700,24.088339599609377,0.029629230499267578,0.1719207763671875,-0.044255971908569336
1707603422671233800,24.10723388671875,-0.726780891418457,-0.17992210388183594,-1.4308654069900513
1707603422690128000,24.1261279296875,0.08312416076660156,-0.011167526245117188,-1.4139679670333862
1707603422709021700,24.145021728515626,1.6818475723266602,-0.4480113983154297,-1.3978239297866821
1707603422727915800,24.163915771484376,1.8832316398620605,0.9288997650146484,-0.6760902404785156
1707603422746809900,24.182809814453126,0.9041016101837158,-1.1856412887573242,0.486691951751709
1707603422765704000,24.201703857421876,1.0158324241638184,-0.11977100372314453,1.478332757949829
