time,seconds_elapsed,z,y,x
1707576951476069400,0.0350693359375,0,0,0
1707576951494962000,0.0539619140625,-0.04067850112915039,-0.01256561279296875,0.02346324920654297
1707576951513854500,0.0728544921875,-0.11878061294555664,0.011242389678955078,-0.03881824016571045
1707576951532747000,0.0917470703125,-0.13097333908081055,0.04102754592895508,-0.11665213108062744
1707576951551639800,0.110639892578125,-0.05723905563354492,0.03761863708496094,-0.012475848197937012
1707576951570532400,0.129532470703125,0.09241914749145508,0.0583500862121582,0.10714113712310791
1707576951589425000,0.1484248046875,0.17322254180908203,0.0378422737121582,0.18079543113708496
1707576951608317400,0.1673173828125,0.19638633728027344,0.010257720947265625,0.10724174976348877
1707576951627210000,0.1862099609375,0.1266160011291504,0.012264251708984375,0.06134188175201416
1707576951646102500,0.2051025390625,0.022317886352539062,-0.01856517791748047,0.10384988784790039
1707576951664995000,0.2239951171875,-0.12305688858032227,-0.04150819778442383,0.17094552516937256
1707576951683887600,0.2428876953125,-0.1596231460571289,0.044547080993652344,0.11520200967788696
1707576951702780200,0.2617802734375,-0.12166404724121094,0.08924436569213867,0.057337939739227295
1707576951721673000,0.2806728515625,0.01194906234741211,0.09118890762329102,0.03193318843841553
1707576951740565500,0.2995654296875,0.0712747573852539,0.0741262435913086,0.10313904285430908
1707576951759458000,0.3184580078125,0.12949800491333008,0.013634681701660156,0.05124861001968384
1707576951778350600,0.3373505859375,0.13732004165649414,0.025059223175048828,0.012973368167877197
1707576951797243100,0.3562431640625,0.06690073013305664,-0.029719829559326172,-0.021035373210906982
1707576951816135700,0.3751357421875,-0.0017714500427246094,-0.053082942962646484,-0.016756951808929443
1707576951835028200,0.3940283203125,0.04021501541137695,-0.0028672218322753906,-0.059935569763183594
1707576951853920800,0.412920654296875,0.032675743103027344,0.005564689636230469,-0.08002161979675293
1707576951872813600,0.4318134765625,0.042675018310546875,-0.007386684417724609,-0.0007887482643127441
1707576951891705900,0.450705810546875,0.022224903106689453,-0.011199951171875,0.027804791927337646
1707576951910598700,0.4695986328125,0.036224365234375,0.02712535858154297,0.013394951820373535
1707576951929491200,0.4884912109375,0.014163494110107422,0.028525829315185547,-0.017483949661254883
1707576951948383700,0.5073837890625,0.007769584655761719,0.005812644958496094,0.04714834690093994
1707576951967276300,0.5262763671875,-0.018177509307861328,0.011590003967285156,0.06904572248458862
1707576951986168800,0.5451689453125,-0.032642364501953125,0.02665567398071289,-0.0034704208374023438
1707576952005061400,0.564061279296875,-0.04806804656982422,-0.000046253204345703125,0.03338348865509033
1707576952023954000,0.582953857421875,-0.017583847045898438,0.049559593200683594,-0.008625447750091553
1707576952042846500,0.601846435546875,0.07395696640014648,0.04880189895629883,-0.07860922813415527
1707576952061739000,0.620739013671875,0.03222084045410156,0.031172752380371094,-0.0872119665145874
1707576952080631800,0.6396318359375,-0.13997888565063477,0.05938148498535156,-0.04630643129348755
1707576952099524400,0.6585244140625,-0.4374423027038574,0.15551137924194336,-0.18819665908813477
1707576952118417000,0.6774169921875,-0.6530055999755859,0.22769975662231445,-0.20487070083618164
1707576952137309400,0.696309326171875,-1.3033442497253418,0.5518364906311035,0.7285930514335632
1707576952156202000,0.715201904296875,-1.642890453338623,1.1524639129638672,2.1077990531921387
1707576952175094500,0.734094482421875,-2.336207389831543,1.175675392150879,3.170487403869629
1707576952193987000,0.752987060546875,-2.2447571754455566,1.2780914306640625,2.1035654544830322
1707576952212879600,0.771879638671875,-1.1147947311401367,0.9760165214538574,0.450101375579834
1707576952231772400,0.7907724609375,0.122833251953125,0.5343496799468994,-0.03077530860900879
1707576952250664700,0.809664794921875,1.243001937866211,0.8929381370544434,-0.6093990802764893
1707576952269557500,0.8285576171875,1.5827207565307617,-0.4582962989807129,-0.8189718723297119
1707576952288450000,0.847449951171875,2.1016769409179688,-1.1887896060943604,-0.678462028503418
1707576952307342600,0.866342529296875,1.3583269119262695,-1.2933582067489624,-0.13650083541870117
1707576952326235100,0.885235107421875,0.4592885971069336,-1.1409969329833984,0.09915781021118164
1707576952345127700,0.904127685546875,0.41153812408447266,-0.9529578685760498,-0.35268330574035645
1707576952364020200,0.923020263671875,1.8612909317016602,-0.48581719398498535,-0.7719621658325195
1707576952382912800,0.941912841796875,2.5767393112182617,-1.4796472787857056,0.43932580947875977
1707576952401805600,0.9608056640625,3.4669532775878906,-1.94886314868927,1.6382801532745361
1707576952420698000,0.979697998046875,2.5842552185058594,-1.9174083471298218,0.26801735162734985
1707576952439590700,0.998590576171875,4.490674018859863,-1.8761862516403198,-0.06592202186584473
1707576952458483200,1.017483154296875,6.58808708190918,-2.4740123748779297,-0.5476589202880859
1707576952477375700,1.036375732421875,7.33308219909668,-3.1066672801971436,-1.4258708953857422
1707576952496268300,1.055268310546875,6.980765342712402,-3.692067861557007,-2.325469970703125
1707576952515160800,1.074160888671875,5.9405951499938965,-4.079274654388428,-1.912010669708252
1707576952534053400,1.093053466796875,5.894317150115967,-4.340667724609375,-1.612032413482666
1707576952552946000,1.11194580078125,5.847201347351074,-4.434505462646484,-3.528646945953369
1707576952571838500,1.13083837890625,4.37529182434082,-3.860870838165283,-6.166887283325195
1707576952590731300,1.149731201171875,2.7139482498168945,-2.795043468475342,-7.261014938354492
1707576952609623800,1.168623779296875,1.736998438835144,-2.4843406677246094,-6.029417514801025
1707576952628516400,1.187516357421875,0.7858893871307373,-2.1003575325012207,-5.206827640533447
1707576952647409000,1.206408935546875,-0.95975661277771,-1.8894805908203125,-4.793918609619141
1707576952666301400,1.225301513671875,-1.495053768157959,-1.3794798851013184,-3.789269208908081
1707576952685194000,1.244194091796875,-0.4143509864807129,-1.0605182647705078,-2.4951488971710205
1707576952704086500,1.26308642578125,1.7644689083099365,-1.08186674118042,-1.7146672010421753
1707576952722979000,1.28197900390625,2.5059869289398193,-0.864652156829834,-1.2173619270324707
1707576952741871600,1.30087158203125,2.324552536010742,-0.5906333923339844,-0.8344643115997314
1707576952760764400,1.319764404296875,1.7965407371520996,-0.6330990791320801,-0.22033149003982544
1707576952779657000,1.338656982421875,1.4127812385559082,-0.7563076019287109,0.5788345336914062
1707576952798549500,1.357549560546875,0.8675594329833984,-0.4737281799316406,0.5858699083328247
1707576952817442000,1.376442138671875,0.23649311065673828,0.050846099853515625,-0.05604243278503418
1707576952836334600,1.39533447265625,-0.1148219108581543,0.0005402565002441406,0.17317414283752441
1707576952855227100,1.41422705078125,-0.7738633155822754,0.09929132461547852,0.013304471969604492
1707576952874119700,1.43311962890625,-1.589850902557373,0.046727657318115234,-0.09618544578552246
1707576952893012200,1.45201220703125,-2.4308853149414062,0.31478357315063477,-0.6143717765808105
1707576952911904800,1.47090478515625,-2.4982991218566895,0.4430418014526367,-1.0485310554504395
1707576952930797300,1.48979736328125,-1.796539306640625,0.1253652572631836,-1.3623156547546387
1707576952949690000,1.508690185546875,-1.440542221069336,0.0011906623840332031,-1.7712454795837402
1707576952968582400,1.52758251953125,-1.6050572395324707,0.09688138961791992,-1.2624058723449707
1707576952987475200,1.54647509765625,-1.7766695022583008,-0.008826732635498047,-0.5590620040893555
1707576953006367700,1.56536767578125,-1.640162467956543,0.12574100494384766,-0.36031055450439453
1707576953025260300,1.58426025390625,-1.0756912231445312,0.12484216690063477,-0.15137910842895508
1707576953044152800,1.60315283203125,-0.4160647392272949,0.08255672454833984,0.15522384643554688
1707576953063045400,1.62204541015625,0.2758312225341797,-0.07598400115966797,0.31640100479125977
1707576953081938000,1.64093798828125,0.507636547088623,-0.16484546661376953,0.3134431838989258
1707576953100830500,1.65983056640625,0.0578770637512207,0.05478382110595703,-0.11378145217895508
1707576953119723300,1.67872314453125,-0.39784669876098633,0.02082538604736328,0.5042304992675781
1707576953138615600,1.697615478515625,-0.582481861114502,0.05174732208251953,0.9941501617431641
1707576953157508400,1.71650830078125,-0.6119289398193359,0.19568443298339844,0.9002938270568848
1707576953176401000,1.73540087890625,-0.5258846282958984,0.09922599792480469,0.9219245910644531
1707576953195293400,1.75429345703125,-0.34203624725341797,-0.29032278060913086,1.0074810981750488
1707576953214186000,1.77318603515625,-0.4618244171142578,-0.5164713859558105,1.0797452926635742
1707576953233078500,1.79207861328125,-0.8629570007324219,-0.0037207603454589844,0.39882659912109375
1707576953251971000,1.81097119140625,-1.3243613243103027,0.23842954635620117,-0.21057605743408203
1707576953270863600,1.829863525390625,-1.6708002090454102,-0.05053853988647461,-0.5373921394348145
1707576953289756200,1.848756103515625,-1.4760255813598633,-0.39701318740844727,0.01957845687866211
1707576953308648700,1.867648681640625,-1.1043758392333984,-0.6794548034667969,0.021481990814208984
1707576953327541500,1.88654150390625,-0.6493403911590576,-0.5458259582519531,-0.25475263595581055
1707576953346434000,1.90543408203125,-0.43103480339050293,-0.15895414352416992,-0.7561511993408203
1707576953365326600,1.92432666015625,-0.41222047805786133,-0.4998135566711426,-0.5181851387023926
1707576953384219100,1.94321923828125,-0.297748327255249,-0.5248026847839355,-0.47458887100219727
1707576953403111700,1.962111572265625,-0.27618539333343506,-0.5866789817810059,-0.6988301277160645
1707576953422004200,1.981004150390625,-0.23353421688079834,-1.0009140968322754,-0.8126859664916992
1707576953440896800,1.999896728515625,-0.22988486289978027,-1.3225550651550293,-0.5510601997375488
1707576953459789300,2.018789306640625,-0.36592721939086914,-0.8949356079101562,-0.6839375495910645
1707576953478681900,2.037681884765625,-0.580322265625,-0.5354852676391602,-0.8451371192932129
1707576953497574400,2.056574462890625,-1.0916167497634888,-0.7184123992919922,-1.1512665748596191
1707576953516467000,2.075467041015625,-1.0493698120117188,-1.4503679275512695,-0.9270620346069336
1707576953535359500,2.094359375,-0.5346720218658447,-1.670186996459961,-0.6414718627929688
1707576953554252300,2.113252197265625,-0.2747214436531067,-1.5191831588745117,-0.7112026214599609
1707576953573144800,2.132144775390625,1.1190769672393799,-1.235539436340332,-1.1677169799804688
1707576953592037400,2.151037353515625,1.775915265083313,-0.759223461151123,-1.6123747825622559
1707576953610930000,2.169929931640625,1.555267095565796,-1.0160470008850098,-1.8060131072998047
1707576953629822500,2.188822509765625,0.8326616287231445,-1.3532171249389648,-1.566568374633789
1707576953648715000,2.207715087890625,0.3599894046783447,-1.8470826148986816,-0.8126397132873535
1707576953667607600,2.226607666015625,-0.03635668754577637,-2.079713821411133,-0.29089927673339844
1707576953686500000,2.2455,-0.39137721061706543,-1.791161060333252,-0.599454402923584
1707576953705392600,2.264392578125,-0.7169346809387207,-1.7539615631103516,-1.3579998016357422
1707576953724285400,2.283285400390625,-0.425443172454834,-2.3294386863708496,-1.737083911895752
1707576953743177700,2.302177734375,0.1356801986694336,-2.618353843688965,-2.365649700164795
1707576953762070500,2.321070556640625,0.0889444351196289,-2.9686269760131836,-2.6218700408935547
1707576953780963000,2.339963134765625,0.5362825393676758,-2.983224868774414,-3.1875791549682617
1707576953799855600,2.358855712890625,-0.29952144622802734,-3.0569496154785156,-3.7879347801208496
1707576953818748200,2.377748046875,-1.4549102783203125,-3.6228561401367188,-3.843602418899536
1707576953837640700,2.396640625,-1.051027774810791,-4.3931884765625,-3.429917097091675
1707576953856533200,2.415533203125,0.93292236328125,-5.046108245849609,-2.3885161876678467
1707576953875425800,2.43442578125,3.076268196105957,-4.9630632400512695,-1.4438589811325073
1707576953894318300,2.453318359375,3.4529409408569336,-4.049045562744141,-1.3307700157165527
1707576953913211000,2.4722109375,2.1881260871887207,-3.537872552871704,-1.7068246603012085
1707576953932103700,2.491103759765625,1.0114026069641113,-3.1827425956726074,-1.712839961051941
1707576953950996000,2.509995849609375,1.6806097030639648,-3.3205580711364746,-1.092047929763794
1707576953969888800,2.528888671875,2.968367099761963,-4.132465362548828,-0.4062185287475586
1707576953988781300,2.54778125,3.2679457664489746,-3.977918863296509,-0.8408892154693604
1707576954007673900,2.566673828125,2.574528694152832,-3.322295904159546,-1.1171646118164062
1707576954026566400,2.58556640625,2.274343490600586,-3.4050452709198,-0.44226861000061035
1707576954045459000,2.604458984375,2.9878768920898438,-4.7705488204956055,1.6643338203430176
1707576954064351500,2.6233515625,3.6275062561035156,-5.652349472045898,3.9760046005249023
1707576954083244000,2.642244140625,3.28658390045166,-4.729128837585449,3.7789840698242188
1707576954102136600,2.661136474609375,2.852005958557129,-4.167295455932617,2.8277642726898193
1707576954121029000,2.680029052734375,3.046616554260254,-3.8550755977630615,1.0412676334381104
1707576954139922000,2.698921875,3.1008148193359375,-3.807101249694824,0.45493555068969727
1707576954158814500,2.717814453125,2.549684524536133,-3.688509941101074,2.0194039344787598
1707576954177707000,2.73670703125,2.2743396759033203,-3.706108808517456,3.672755241394043
1707576954196599600,2.755599609375,1.3051233291625977,-2.4948465824127197,3.953990936279297
1707576954215492000,2.7744921875,0.3377342224121094,-1.225879192352295,3.389803171157837
1707576954234384600,2.793384521484375,-0.14705562591552734,-0.26670002937316895,2.407744884490967
1707576954253277200,2.812277099609375,-0.36942577362060547,0.04958224296569824,1.66664457321167
1707576954272169700,2.831169677734375,-0.3192329406738281,-0.007180213928222656,1.6954190731048584
1707576954291062300,2.850062255859375,-0.22800254821777344,0.3151068687438965,1.4815415143966675
1707576954309954800,2.868954833984375,-0.6412944793701172,0.18210363388061523,1.617779016494751
1707576954328847600,2.88784765625,-0.7561817169189453,-0.06732583045959473,1.7083168029785156
1707576954347740000,2.906739990234375,-0.3139219284057617,0.3679978847503662,1.0746266841888428
1707576954366632700,2.9256328125,-0.2483205795288086,-0.1379077434539795,1.2934999465942383
1707576954385525200,2.944525146484375,-0.6099672317504883,-0.1314983367919922,1.1291515827178955
1707576954404417800,2.963417724609375,-0.8022546768188477,-0.03191781044006348,0.9209495782852173
1707576954423310300,2.982310302734375,-0.6224546432495117,0.07046961784362793,1.060974359512329
1707576954442203000,3.001202880859375,-0.22658634185791016,0.09587407112121582,1.172329068183899
1707576954461095400,3.020095458984375,0.329132080078125,0.15702104568481445,1.0922901630401611
1707576954479988000,3.038988037109375,0.33580780029296875,0.27971363067626953,1.0288172960281372
1707576954498880800,3.057880859375,-0.21532630920410156,0.26933717727661133,0.6287592649459839
1707576954517773000,3.07677294921875,-0.3962697982788086,0.3050389289855957,0.20518016815185547
1707576954536665900,3.095665771484375,-0.5663852691650391,0.20443272590637207,-0.14820480346679688
1707576954555558400,3.114558349609375,-0.7325191497802734,0.2728290557861328,-0.12227523326873779
1707576954574451000,3.133450927734375,-0.8261804580688477,0.32628893852233887,-0.07294809818267822
1707576954593343500,3.152343505859375,-0.8359932899475098,0.2696249485015869,0.06612753868103027
1707576954612236000,3.171236083984375,-0.7464199066162109,0.4322500228881836,-0.208906888961792
1707576954631128600,3.190128662109375,-1.0621461868286133,0.5090324878692627,0.012196540832519531
1707576954650021000,3.209021240234375,-1.7228021621704102,0.7902696132659912,0.2767000198364258
1707576954668913700,3.22791357421875,-2.045246124267578,0.9393627643585205,0.8610923290252686
1707576954687806200,3.24680615234375,-1.6860675811767578,0.6402873992919922,2.2265138626098633
1707576954706698800,3.26569873046875,0.17502689361572266,0.44023728370666504,3.3335633277893066
1707576954725591600,3.284591552734375,1.3109674453735352,0.504854679107666,3.4589147567749023
1707576954744484000,3.303484130859375,1.2346858978271484,0.47978901863098145,2.9294822216033936
1707576954763376600,3.322376708984375,0.774815559387207,0.18545126914978027,2.3904223442077637
1707576954782269200,3.341269287109375,1.0578699111938477,-0.9257783889770508,3.125997543334961
1707576954801161700,3.36016162109375,1.6421408653259277,-1.4296841621398926,3.8323354721069336
1707576954820054300,3.37905419921875,2.056674003601074,-2.3998026847839355,4.857254981994629
1707576954838946800,3.39794677734375,2.141481399536133,-2.386650800704956,4.61619234085083
1707576954857839400,3.41683935546875,2.4087142944335938,-2.7840805053710938,3.5562753677368164
1707576954876732000,3.43573193359375,3.579751491546631,-3.1270151138305664,2.421618938446045
1707576954895624700,3.454624755859375,4.132655620574951,-3.18215274810791,1.56937837600708
1707576954914517000,3.47351708984375,3.501156806945801,-2.980584144592285,0.025367259979248047
1707576954933409800,3.492409912109375,2.295443534851074,-3.15468430519104,0.07478618621826172
1707576954952302300,3.51130224609375,1.9889116287231445,-3.8028531074523926,1.2492661476135254
1707576954971195000,3.53019482421875,2.248131275177002,-3.819070339202881,1.9042620658874512
1707576954990087400,3.54908740234375,3.036243438720703,-3.7677690982818604,1.7399754524230957
1707576955008980000,3.56797998046875,3.53589129447937,-3.425199508666992,0.9552164077758789
1707576955027872500,3.58687255859375,3.709829330444336,-3.1808180809020996,0.9918961524963379
1707576955046765000,3.60576513671875,2.492429256439209,-3.2568140029907227,1.9202640056610107
1707576955065657900,3.624657958984375,1.8190670013427734,-3.368223190307617,2.001840114593506
1707576955084550400,3.64355029296875,0.731691837310791,-3.495657444000244,2.5235774517059326
1707576955103443000,3.66244287109375,0.9933733940124512,-3.124990463256836,2.485480785369873
1707576955122335500,3.68133544921875,1.3113446235656738,-2.9113078117370605,2.1203041076660156
1707576955141228000,3.70022802734375,1.3330535888671875,-3.324173927307129,2.3569698333740234
1707576955160120600,3.71912060546875,1.9628663063049316,-3.9713830947875977,1.2873249053955078
1707576955179013000,3.73801318359375,2.4699625968933105,-3.786167621612549,0.4567863941192627
1707576955197905700,3.75690576171875,1.8295114040374756,-3.5783848762512207,-0.1550278663635254
1707576955216798200,3.775798095703125,0.7483181953430176,-3.555448293685913,-1.725019931793213
1707576955235690800,3.794690673828125,0.10854792594909668,-2.9497175216674805,-2.810089111328125
1707576955254583300,3.813583251953125,-0.2709231376647949,-1.533444881439209,-2.383852005004883
1707576955273475800,3.832475830078125,-0.08341288566589355,-0.6929101943969727,-2.12058162689209
1707576955292368600,3.85136865234375,-0.11374449729919434,-0.5832910537719727,-2.39741849899292
1707576955311261200,3.87026123046875,0.004876136779785156,-0.39995813369750977,-2.872251033782959
1707576955330153700,3.88915380859375,0.48211240768432617,-0.271883487701416,-2.890401840209961
1707576955349046300,3.90804638671875,0.7029910087585449,0.2370615005493164,-2.385366439819336
1707576955367938800,3.926938720703125,0.3253135681152344,0.25458192825317383,-2.3648886680603027
1707576955386831400,3.945831298828125,-0.1052250862121582,-0.06328225135803223,-2.6884541511535645
1707576955405724000,3.964723876953125,-0.7644357681274414,-0.41930246353149414,-2.8325634002685547
1707576955424616400,3.983616455078125,-1.2857084274291992,-0.40633440017700195,-3.1328530311584473
1707576955443509000,4.002509033203125,-1.8061635494232178,-0.5894248485565186,-3.6060733795166016
1707576955462401500,4.021401611328125,-2.6976547241210938,-0.9846761226654053,-4.302513122558594
1707576955481294000,4.040294189453125,-4.184870719909668,-1.3058454990386963,-3.6498751640319824
1707576955500187000,4.059186767578125,-4.9286699295043945,-2.8202240467071533,-3.5121583938598633
1707576955519079200,4.0780791015625,-2.6164426803588867,-4.822165489196777,-1.8901610374450684
1707576955537972000,4.096971923828125,-0.39876651763916016,-5.721518516540527,-1.6054425239562988
1707576955556864500,4.115864501953125,1.3445415496826172,-5.628005027770996,-1.3425636291503906
1707576955575757000,4.134757080078125,1.3219795227050781,-5.231199741363525,-2.142709732055664
1707576955594649600,4.153649658203125,1.7895350456237793,-5.340043544769287,-3.3553686141967773
1707576955613542100,4.172542236328125,3.166414737701416,-5.561720371246338,-2.6500940322875977
1707576955632434700,4.1914345703125,4.600017547607422,-5.8362250328063965,-1.5641546249389648
1707576955651327200,4.2103271484375,5.229515075683594,-5.4942827224731445,-0.9893057346343994
1707576955670220000,4.229219970703125,4.4241108894348145,-5.276247501373291,-2.010606527328491
1707576955689112300,4.2481123046875,3.0008091926574707,-5.297489166259766,-3.4104533195495605
1707576955708005000,4.267005126953125,2.5160560607910156,-5.302079200744629,-3.8348917961120605
1707576955726897700,4.285897705078125,1.6933379173278809,-5.5233564376831055,-3.8738675117492676
1707576955745790200,4.304790283203125,1.2937202453613281,-6.041282653808594,-3.2984533309936523
1707576955764682800,4.323682861328125,1.3261346817016602,-6.652364253997803,-2.073399543762207
1707576955783575300,4.3425751953125,1.3111839294433594,-7.285526752471924,-0.6269118785858154
1707576955802467800,4.3614677734375,1.7821989059448242,-7.836102485656738,1.266082525253296
1707576955821360400,4.3803603515625,1.6805572509765625,-7.1011857986450195,4.010464668273926
1707576955840253000,4.3992529296875,0.6750998497009277,-5.587370872497559,6.366386890411377
1707576955859145500,4.4181455078125,2.282398223876953,-3.915640354156494,8.329449653625488
1707576955878038300,4.437038330078125,6.276381015777588,-1.7841930389404297,7.212874412536621
1707576955896930800,4.455930908203125,7.397459030151367,-0.4892144203186035,4.878850936889648
1707576955915823400,4.4748232421875,4.41819953918457,0.1088418960571289,1.8023395538330078
1707576955934716000,4.4937158203125,0.06355524063110352,0.42520666122436523,-0.7708398103713989
1707576955953608400,4.5126083984375,-1.7513599395751953,0.1350536346435547,-0.04396557807922363
1707576955972501000,4.5315009765625,-1.906935691833496,0.09839630126953125,1.9093694686889648
1707576955991393500,4.5503935546875,-0.8366594314575195,0.41124773025512695,2.672719955444336
1707576956010286000,4.5692861328125,-0.3653120994567871,0.24413824081420898,1.5516984462738037
1707576956029178600,4.5881787109375,-1.4189715385437012,-0.11315679550170898,0.14963078498840332
1707576956048071200,4.6070712890625,-2.2017717361450195,-0.5800623893737793,0.6978129148483276
1707576956066964000,4.6259638671875,-2.1783061027526855,-0.5765380859375,1.2171616554260254
1707576956085856300,4.644856201171875,-1.7110662460327148,-0.4266786575317383,2.219350814819336
1707576956104749000,4.6637490234375,-0.8865585327148438,-0.2979111671447754,2.4412155151367188
1707576956123641600,4.6826416015625,0.10206127166748047,-0.1606454849243164,2.226374387741089
1707576956142534100,4.7015341796875,0.8154420852661133,-0.3515334129333496,1.0481176376342773
1707576956161426700,4.7204267578125,1.2046904563903809,-0.7097735404968262,-0.340287446975708
1707576956180319200,4.7393193359375,1.8047213554382324,-1.4451513290405273,0.02281367778778076
1707576956199211800,4.758211669921875,2.1346917152404785,-0.9011135101318359,0.30152297019958496
1707576956218104300,4.777104248046875,1.5938544273376465,-0.8846898078918457,0.11892890930175781
1707576956236997000,4.7959970703125,1.7972497940063477,-0.7013039588928223,-1.0954869985580444
1707576956255889400,4.814889404296875,1.7773356437683105,-0.7846307754516602,-2.5423338413238525
1707576956274782200,4.8337822265625,1.4549360275268555,-0.6824064254760742,-2.889958143234253
1707576956293674800,4.8526748046875,1.0537519454956055,-0.6425986289978027,-1.375800371170044
1707576956312567300,4.8715673828125,-0.6115031242370605,1.2649025917053223,1.7634748220443726
1707576956331459800,4.8904599609375,-0.4597129821777344,1.7423300743103027,2.4005398750305176
1707576956350352400,4.909352294921875,2.139101505279541,1.227811336517334,1.2427998781204224
1707576956369245000,4.928244873046875,2.657489776611328,0.3016681671142578,0.6020410060882568
1707576956388137500,4.947137451171875,2.6225152015686035,0.01640033721923828,0.4033926725387573
1707576956407030000,4.966030029296875,1.1333599090576172,-0.21560382843017578,0.5954798460006714
1707576956425922600,4.984922607421875,-0.5983381271362305,-0.30327272415161133,0.8398674726486206
1707576956444815400,5.0038154296875,-2.019080638885498,-0.04940319061279297,1.3107460737228394
1707576956463708000,5.0227080078125,-2.336949348449707,0.4956498146057129,1.1497676372528076
1707576956482600400,5.041600341796875,-1.8016562461853027,0.5578441619873047,0.9729036688804626
1707576956501493000,5.060492919921875,-0.9199905395507812,0.5520124435424805,0.8263012170791626
1707576956520385500,5.079385498046875,-0.12863826751708984,0.36956119537353516,0.4121193289756775
1707576956539278000,5.098278076171875,0.38763952255249023,0.2528667449951172,-0.0763545110821724
1707576956558170600,5.117170654296875,0.44023942947387695,-0.32497358322143555,-0.6339371204376221
1707576956577063200,5.136063232421875,0.5059003829956055,-0.9690208435058594,-0.6737700700759888
1707576956595955700,5.154955810546875,0.521916389465332,-0.7851934432983398,-0.754747211933136
1707576956614848300,5.17384814453125,0.49121952056884766,-0.5382637977600098,-0.5788864493370056
1707576956633741000,5.192740966796875,0.7077569961547852,-0.0720968246459961,-0.6028923392295837
1707576956652633300,5.21163330078125,0.7386884689331055,0.2465348243713379,-0.7014808058738708
1707576956671526100,5.230526123046875,0.43340301513671875,0.35449647903442383,-0.6418470144271851
1707576956690418700,5.249418701171875,0.11345481872558594,0.41152477264404297,-0.47387897968292236
1707576956709311200,5.268311279296875,0.0827951431274414,0.4417729377746582,-0.15007376670837402
1707576956728203800,5.287203857421875,0.1603536605834961,0.28188514709472656,-0.08631491661071777
1707576956747096300,5.306096435546875,0.22684192657470703,0.12861871719360352,-0.1943407654762268
1707576956765988900,5.32498876953125,0.21826839447021484,0.03297901153564453,-0.3024066686630249
1707576956784881400,5.34388134765625,0.48032283782958984,-0.003215789794921875,-0.11112934350967407
1707576956803774200,5.362774169921875,0.3792133331298828,-0.026098251342773438,0.03515183925628662
1707576956822666500,5.38166650390625,0.11464786529541016,-0.1240854263305664,0.11669391393661499
1707576956841559300,5.400559326171875,0.25611019134521484,-0.15889501571655273,0.33318066596984863
1707576956860451800,5.419451904296875,0.16245269775390625,0.042256832122802734,0.41166573762893677
1707576956879344400,5.438344482421875,-0.036617279052734375,0.14291810989379883,0.31196022033691406
1707576956898237000,5.45723681640625,-0.3073849678039551,0.1714000701904297,0.22034382820129395
1707576956917129500,5.47612939453125,-0.3408670425415039,0.1984553337097168,0.14826804399490356
1707576956936022000,5.49502197265625,-0.2564239501953125,0.15279150009155273,0.10504361987113953
1707576956954914600,5.51391455078125,-0.013753890991210938,0.09881877899169922,0.07944720983505249
1707576956973807000,5.53280712890625,0.027017593383789062,0.0699167251586914,0.07338753342628479
1707576956992699600,5.55169970703125,0.012167930603027344,0.14124631881713867,0.11862006783485413
1707576957011592200,5.57059228515625,-0.06370925903320312,0.17001819610595703,0.1138482391834259
1707576957030485000,5.589485107421875,0.07672500610351562,0.16800212860107422,0.042682141065597534
1707576957049377500,5.60837744140625,0.11672306060791016,0.11811351776123047,0.09496822953224182
1707576957068270000,5.62727001953125,-0.01743793487548828,0.09245824813842773,0.3085535764694214
1707576957087162600,5.64616259765625,-0.19731426239013672,0.040848731994628906,0.34724777936935425
1707576957106055200,5.66505517578125,-0.4361543655395508,0.05278348922729492,0.2985910177230835
1707576957124947700,5.68394775390625,-0.37450504302978516,0.04050397872924805,0.1928410828113556
1707576957143840300,5.70284033203125,-0.01584911346435547,-0.0348052978515625,0.08690667152404785
1707576957162732800,5.72173291015625,0.2894439697265625,-0.0017714500427246094,0.06451131403446198
1707576957181625300,5.740625244140625,0.4552593231201172,-0.028041839599609375,0.03156194090843201
1707576957200518100,5.75951806640625,0.46526050567626953,0.010384559631347656,-0.025236964225769043
1707576957219410400,5.778410400390625,0.3000316619873047,0.039830684661865234,-0.06583277881145477
1707576957238303200,5.79730322265625,0.15383625030517578,0.03478860855102539,-0.18275371193885803
1707576957257195800,5.81619580078125,0.06011486053466797,0.028269290924072266,-0.2890874743461609
1707576957276088300,5.83508837890625,0.04411792755126953,-0.02575969696044922,-0.38501274585723877
1707576957294980900,5.85398095703125,0.015533447265625,-0.03454732894897461,-0.46608442068099976
1707576957313873400,5.872873291015625,-0.02860260009765625,-0.06873178482055664,-0.4632773995399475
1707576957332766000,5.891765869140625,0.0050830841064453125,-0.0505671501159668,-0.5395829081535339
1707576957351658500,5.910658447265625,0.09873771667480469,0.0005640983581542969,-0.47487229108810425
1707576957370551300,5.92955126953125,0.06674671173095703,-0.08638477325439453,-0.20856672525405884
1707576957389443600,5.948443603515625,0.03386116027832031,-0.1033015251159668,0.0639735534787178
1707576957408336400,5.96733642578125,0.0638275146484375,-0.07008647918701172,0.24419210851192474
1707576957427229000,5.98622900390625,-0.03368091583251953,-0.06650161743164062,0.4091787040233612
1707576957446121500,6.00512158203125,-0.23133087158203125,-0.019251346588134766,0.4987715184688568
1707576957465014000,6.024013916015625,-0.3075728416442871,0.11204719543457031,0.507073163986206
1707576957483906600,6.042906494140625,-0.3575458526611328,0.11986160278320312,0.6013399362564087
1707576957502799000,6.061799072265625,-0.3050727844238281,0.15868854522705078,0.6368125677108765
1707576957521691600,6.080691650390625,-0.1451568603515625,0.18204689025878906,0.602689266204834
1707576957540584200,6.099584228515625,-0.12207984924316406,0.10465812683105469,0.6030174493789673
1707576957559477000,6.11847705078125,-0.123046875,0.11848020553588867,0.5290283560752869
1707576957578369300,6.137369384765625,-0.0697946548461914,0.1619253158569336,0.3175424039363861
1707576957597262000,6.156261962890625,0.002086639404296875,0.10723543167114258,0.0474318265914917
1707576957616154600,6.175154541015625,0.05834388732910156,0.08485889434814453,-0.11494076251983643
1707576957635047200,6.194047119140625,0.03002643585205078,0.07465791702270508,-0.12250494956970215
1707576957653939700,6.212939697265625,0.02513599395751953,0.02111673355102539,-0.09186234325170517
1707576957672832300,6.231832275390625,0.059960365295410156,0.00557708740234375,-0.008210070431232452
1707576957691724800,6.250724853515625,0.12504863739013672,-0.039336204528808594,-0.024799443781375885
1707576957710617300,6.269617431640625,0.23816776275634766,-0.05440092086791992,-0.1267535388469696
1707576957729510100,6.28851025390625,0.25601959228515625,-0.0858774185180664,-0.2680434286594391
1707576957748402400,6.30740234375,0.21825695037841797,-0.12818622589111328,-0.33495184779167175
1707576957767295200,6.326295166015625,0.12199115753173828,-0.08138418197631836,-0.35371676087379456
1707576957786187800,6.345187744140625,0.06464099884033203,-0.0537724494934082,-0.4293089807033539
1707576957805080300,6.364080322265625,0.009708404541015625,-0.09278106689453125,-0.434650182723999
1707576957823972900,6.382972900390625,-0.0075626373291015625,-0.025722503662109375,-0.30027568340301514
1707576957842865400,6.401865478515625,0.05820655822753906,0.07895469665527344,-0.11673561483621597
1707576957861758000,6.420758056640625,0.17586421966552734,0.08453941345214844,0.06610113382339478
1707576957880650500,6.439650390625,0.2647562026977539,0.10017108917236328,0.19269762933254242
1707576957899543000,6.45854296875,0.18430614471435547,0.0019731521606445312,0.26997387409210205
1707576957918435600,6.477435546875,0.11006355285644531,-0.035546302795410156,0.30735746026039124
1707576957937328000,6.496328125,0.04264259338378906,-0.0531768798828125,0.2501636743545532
1707576957956221000,6.515220947265625,-0.026136398315429688,-0.024254322052001953,0.17222407460212708
1707576957975113500,6.534113525390625,0.048628807067871094,0.004656314849853516,0.07931961864233017
1707576957994006000,6.553006103515625,0.02720355987548828,-0.01595783233642578,-0.01674535870552063
1707576958012898600,6.571898681640625,-0.010519027709960938,-0.01714038848876953,-0.08058003336191177
1707576958031791000,6.590791015625,0.016104698181152344,0.014201641082763672,-0.15427061915397644
1707576958050683600,6.60968359375,-0.05206871032714844,0.030341148376464844,-0.1285843551158905
1707576958069576200,6.628576171875,-0.11238765716552734,0.07839393615722656,-0.14912107586860657
1707576958088468700,6.64746875,-0.14424800872802734,0.05678510665893555,-0.031208842992782593
1707576958107361300,6.666361328125,-0.14685821533203125,0.012227535247802734,0.04684474319219589
1707576958126254000,6.685254150390625,-0.11682415008544922,-0.019899845123291016,0.05745377391576767
1707576958145146400,6.704146484375,-0.03656482696533203,-0.08196401596069336,0.05890132486820221
1707576958164039200,6.7230390625,0.10260295867919922,-0.13824033737182617,0.03788295388221741
1707576958182931700,6.741931640625,0.22574710845947266,-0.13450098037719727,0.028893887996673584
1707576958201824300,6.76082421875,0.27405452728271484,-0.07107877731323242,0.12697182595729828
1707576958220716800,6.779716796875,0.24233055114746094,-0.010638236999511719,0.1679273396730423
1707576958239609300,6.798609375,0.06344985961914062,0.021976947784423828,0.06653226912021637
1707576958258502000,6.817501953125,-0.14463233947753906,0.08809137344360352,-0.128777876496315
1707576958277394400,6.83639453125,-0.21318626403808594,0.06384134292602539,-0.31126248836517334
1707576958296287200,6.855287353515625,-0.1812887191772461,0.08032703399658203,-0.2858450412750244
1707576958315179800,6.8741796875,-0.09387016296386719,0.1552128791809082,-0.10557156056165695
1707576958334072300,6.893072265625,0.036889076232910156,0.16953802108764648,0.09398940205574036
1707576958352964900,6.91196484375,0.21942615509033203,0.07466316223144531,0.24485278129577637
1707576958371857400,6.930857421875,0.3897676467895508,0.061061859130859375,0.28059741854667664
1707576958390750000,6.94975,0.5228023529052734,0.012654781341552734,0.2347823828458786
1707576958409642500,6.968642578125,0.5428714752197266,-0.10901737213134766,0.11427545547485352
1707576958428535000,6.98753515625,0.3286314010620117,-0.18177080154418945,0.069634348154068
1707576958447427600,7.006427490234375,-0.022663116455078125,-0.28087377548217773,-0.019389107823371887
1707576958466320100,7.025320068359375,-0.3928689956665039,-0.18033266067504883,-0.1645466685295105
1707576958485213000,7.044212890625,-0.47271299362182617,-0.07363414764404297,-0.21258258819580078
1707576958504105200,7.063105224609375,-0.42284488677978516,-0.09521675109863281,0.1063365489244461
1707576958522998000,7.081998046875,-0.1632518768310547,0.015756607055664062,-0.05025024712085724
1707576958541890600,7.100890625,-0.07497596740722656,-0.008892536163330078,-0.1117183268070221
1707576958560783000,7.119783203125,-0.02597808837890625,0.11812257766723633,-0.14277711510658264
1707576958579675600,7.138675537109375,-0.006778717041015625,0.18807220458984375,-0.22711032629013062
1707576958598568200,7.157568115234375,-0.026093482971191406,0.18410873413085938,-0.17149436473846436
1707576958617460700,7.176460693359375,-0.01683807373046875,0.19878244400024414,-0.010001957416534424
1707576958636353300,7.195353271484375,-0.009515762329101562,0.13979816436767578,0.11544337868690491
1707576958655246000,7.21424609375,-0.10653209686279297,0.03494834899902344,0.22938115894794464
1707576958674138400,7.233138427734375,-0.0849313735961914,-0.06174135208129883,0.3327201306819916
1707576958693031200,7.25203125,0.06484603881835938,-0.15310001373291016,0.35805463790893555
1707576958711923700,7.270923828125,0.24663257598876953,-0.1534595489501953,0.2887144386768341
1707576958730816300,7.289816162109375,0.31391048431396484,-0.09631967544555664,0.1544598639011383
1707576958749708800,7.308708740234375,0.25469017028808594,-0.05119466781616211,0.10756653547286987
1707576958768601300,7.327601318359375,0.026964187622070312,0.02735137939453125,0.08813130855560303
1707576958787494000,7.346493896484375,-0.14000415802001953,0.08523273468017578,0.09856343269348145
1707576958806386400,7.365386474609375,-0.28107261657714844,0.08860111236572266,0.10300785303115845
1707576958825279000,7.384279052734375,-0.44823551177978516,0.17589378356933594,0.060775935649871826
1707576958844171800,7.403171875,-0.5749664306640625,0.14160490036010742,0.16760730743408203
1707576958863064000,7.42206396484375,-0.6784296035766602,0.07230138778686523,0.23877093195915222
1707576958881956900,7.440956787109375,-0.5867161750793457,0.10083580017089844,-0.05541825294494629
1707576958900849400,7.459849365234375,-0.3657674789428711,-0.023572921752929688,-0.0773395299911499
1707576958919742000,7.478741943359375,-0.23290252685546875,-0.4306340217590332,-0.023614168167114258
1707576958938634500,7.497634521484375,-0.4348902702331543,-0.18266677856445312,-0.10098922252655029
1707576958957527000,7.516527099609375,-0.6976518630981445,0.041500091552734375,0.05304849147796631
1707576958976419600,7.535419677734375,-0.9545621871948242,0.12192440032958984,0.37759608030319214
1707576958995312000,7.55431201171875,-0.8597211837768555,-0.02130126953125,0.6435354948043823
1707576959014205000,7.573204833984375,-0.4145517349243164,-0.14412403106689453,0.23341381549835205
1707576959033097200,7.59209716796875,-0.28455448150634766,-0.05106353759765625,0.028478264808654785
1707576959051990000,7.610989990234375,-0.37401866912841797,0.08349227905273438,-0.011601448059082031
1707576959070882600,7.629882568359375,-1.572354793548584,-0.4351205825805664,-0.40940606594085693
1707576959089775000,7.648775146484375,-1.1596698760986328,-0.5600008964538574,-0.7526237964630127
1707576959108667600,7.667667724609375,-0.3766450881958008,-0.17565369606018066,-0.36187875270843506
1707576959127560200,7.686560302734375,0.31990528106689453,-0.03722548484802246,0.049954771995544434
1707576959146452700,7.70545263671875,0.7331438064575195,0.012665033340454102,0.2801024913787842
1707576959165345300,7.72434521484375,1.0578556060791016,0.09211492538452148,0.38287675380706787
1707576959184237800,7.74323779296875,1.3901195526123047,0.06610727310180664,0.3656020164489746
1707576959203130600,7.762130615234375,1.7715253829956055,-0.006191730499267578,0.09673547744750977
1707576959222023200,7.781023193359375,2.035311698913574,-0.01776432991027832,-0.11274337768554688
1707576959240915700,7.799915771484375,2.112886428833008,-0.17468643188476562,-0.1406571865081787
1707576959259808300,7.818808349609375,2.0608768463134766,-0.34341514110565186,0.018119335174560547
1707576959278700800,7.83770068359375,1.8118648529052734,-0.6066420078277588,0.27327394485473633
1707576959297593300,7.85659326171875,1.4760961532592773,-0.794164776802063,0.3481121063232422
1707576959316486000,7.87548583984375,1.313711166381836,-0.8160293102264404,0.1013796329498291
1707576959335378400,7.89437841796875,1.1907825469970703,-0.6354422569274902,-0.2901136875152588
1707576959354271000,7.91327099609375,1.3537044525146484,-0.4964897632598877,-0.6810133457183838
1707576959373163800,7.932163818359375,1.1715507507324219,-0.5130915641784668,-0.9272012710571289
1707576959392056000,7.95105615234375,0.760838508605957,-0.5270655155181885,-1.028578758239746
1707576959410948900,7.969948974609375,-0.14208984375,-0.19642400741577148,-1.0600495338439941
1707576959429841400,7.98884130859375,-1.3143529891967773,-0.05691337585449219,-1.2113220691680908
1707576959448734000,8.00773388671875,-1.626582145690918,-0.27887463569641113,-0.8168714046478271
1707576959467626500,8.02662646484375,-1.3051466941833496,-0.3860626220703125,-0.5401346683502197
1707576959486519000,8.04551904296875,-1.104318618774414,-0.31433629989624023,-0.39488935470581055
1707576959505411600,8.06441162109375,-0.9670181274414062,-0.10199260711669922,-0.266315221786499
1707576959524304100,8.08330419921875,-0.5938100814819336,0.027172088623046875,-0.25179338455200195
1707576959543196700,8.10219677734375,-0.1648874282836914,0.04414558410644531,-0.22982525825500488
1707576959562089500,8.12108935546875,0.21318912506103516,0.10293245315551758,-0.16529035568237305
1707576959580982000,8.13998193359375,0.3739662170410156,0.13498449325561523,-0.07251906394958496
1707576959599874600,8.15887451171875,0.25340747833251953,0.10421562194824219,0.2526850700378418
1707576959618767000,8.17776708984375,0.22958946228027344,-0.08034324645996094,0.6370103359222412
1707576959637659600,8.19665966796875,0.3329935073852539,-0.277158260345459,0.8213592767715454
1707576959656552200,8.21555224609375,0.29437828063964844,-0.18099021911621094,0.882427453994751
1707576959675444700,8.23444482421875,0.4467935562133789,-0.012206554412841797,0.7909631729125977
1707576959694337300,8.253337158203125,0.38651371002197266,0.15193843841552734,0.632209062576294
1707576959713229800,8.272229736328125,0.2981233596801758,0.21032381057739258,0.495373010635376
1707576959732122600,8.29112255859375,0.09640979766845703,0.20673656463623047,0.4113842248916626
1707576959751015200,8.31001513671875,-0.05646514892578125,0.22521066665649414,0.35646891593933105
1707576959769907700,8.32890771484375,-0.10116863250732422,0.3950176239013672,0.07563447952270508
1707576959788800300,8.34780029296875,-0.13646268844604492,0.5222249031066895,-0.1512434482574463
1707576959807692800,8.36669287109375,-0.047902584075927734,0.599431037902832,-0.3716001510620117
1707576959826585300,8.38558544921875,-0.12295866012573242,0.8302865028381348,-0.6753454208374023
1707576959845478000,8.404477783203125,-0.024997711181640625,0.46566343307495117,-0.18800854682922363
1707576959864370400,8.423370361328125,0.20981979370117188,0.11066770553588867,0.062048912048339844
1707576959883263000,8.442262939453125,0.4051218032836914,0.0899038314819336,-0.035523414611816406
1707576959902155800,8.46115576171875,0.25250864028930664,0.005886077880859375,0.08417224884033203
1707576959921048300,8.48004833984375,0.22189903259277344,0.1269683837890625,-0.012537240982055664
1707576959939940900,8.49894091796875,0.2870607376098633,0.0458989143371582,0.16755318641662598
1707576959958833400,8.51783349609375,0.10218954086303711,0.04014873504638672,-0.019626855850219727
1707576959977726000,8.536725830078124,0.14404535293579102,-0.011810779571533203,-0.11190319061279297
1707576959996618500,8.555618408203125,0.1616225242614746,-0.02877330780029297,-0.010733604431152344
1707576960015511000,8.574510986328125,-0.10477066040039062,-0.013187408447265625,0.11889457702636719
1707576960034403600,8.593403564453125,-0.3816819190979004,-0.08336114883422852,0.12505269050598145
1707576960053296400,8.61229638671875,-0.9159002304077148,0.18191003799438477,-0.4034099578857422
1707576960072188700,8.631188720703125,-0.5816717147827148,0.16932010650634766,-0.5939638614654541
1707576960091081500,8.65008154296875,-0.3905940055847168,-0.04374980926513672,-0.4743056297302246
1707576960109974000,8.66897412109375,-0.436521053314209,0.05504798889160156,-0.5576460361480713
1707576960128866600,8.687866455078124,-0.17899799346923828,0.008145809173583984,-0.7122414112091064
1707576960147759000,8.706759033203125,-0.023406505584716797,-0.08580875396728516,-0.44600915908813477
1707576960166651600,8.725651611328125,-0.26801443099975586,-0.02403545379638672,0.05241203308105469
1707576960185544200,8.744544189453125,-0.37971925735473633,0.09687566757202148,0.07471489906311035
1707576960204436700,8.763436767578124,-0.2408742904663086,0.08907938003540039,-0.19268131256103516
1707576960223329300,8.782329345703126,-0.06466102600097656,0.05989360809326172,-0.39483070373535156
1707576960242221800,8.801221923828125,0.01378488540649414,0.02872753143310547,-0.3025779724121094
1707576960261114600,8.820114501953125,-0.13490772247314453,0.012850761413574219,0.015186786651611328
1707576960280007200,8.839007080078124,0.11925983428955078,0.12565279006958008,0.23575615882873535
1707576960298899700,8.857899658203126,0.5634231567382812,0.29360342025756836,0.4809912443161011
1707576960317792300,8.876792236328125,0.7815070152282715,0.4535212516784668,0.9302549362182617
1707576960336684800,8.895684814453125,0.10027694702148438,0.19564294815063477,1.1464171409606934
1707576960355577300,8.914577392578124,-0.28566455841064453,-0.007533550262451172,0.7393068075180054
1707576960374470000,8.933469970703126,0.02097606658935547,0.028568744659423828,0.18939971923828125
1707576960393362400,8.952362548828125,0.2872171401977539,0.0894308090209961,-0.025322914123535156
1707576960412255200,8.971255126953125,0.35285472869873047,0.18079805374145508,-0.0057675838470458984
1707576960431147500,8.9901474609375,0.49121570587158203,0.11757135391235352,-0.25711703300476074
1707576960450040300,9.009040283203126,0.524693489074707,-0.04381132125854492,-0.4076061248779297
1707576960468932900,9.027932861328125,0.45942211151123047,-0.09370899200439453,-0.38660287857055664
1707576960487825400,9.046825439453125,0.3204813003540039,-0.10232925415039062,-0.4868946075439453
1707576960506718000,9.065718017578124,0.1867809295654297,-0.10188722610473633,-0.6061394214630127
1707576960525610500,9.084610595703126,0.16448211669921875,-0.04442167282104492,-0.644770622253418
1707576960544503000,9.1035029296875,0.05207538604736328,0.06503438949584961,-0.5484447479248047
1707576960563395600,9.1223955078125,-0.14438724517822266,0.06891059875488281,-0.35563135147094727
1707576960582288100,9.1412880859375,-0.3284034729003906,0.07821941375732422,-0.19569802284240723
1707576960601181000,9.160180908203126,-0.16214275360107422,0.046308040618896484,-0.196083664894104
1707576960620073500,9.179073486328125,-0.013776779174804688,-0.023471355438232422,-0.31198298931121826
1707576960638966000,9.197966064453125,0.07763099670410156,-0.013432979583740234,-0.2165999412536621
1707576960657858600,9.216858642578124,0.11893653869628906,-0.04902935028076172,0.03494822978973389
1707576960676751000,9.235751220703126,0.1494770050048828,-0.10825252532958984,0.2104647159576416
1707576960695643600,9.2546435546875,0.11859416961669922,-0.07721090316772461,0.3012949228286743
1707576960714536200,9.2735361328125,0.2446451187133789,-0.08445549011230469,0.33899688720703125
1707576960733429000,9.292428955078124,0.606837272644043,-0.20612716674804688,0.2957315444946289
1707576960752321300,9.3113212890625,0.8190679550170898,-0.26194000244140625,0.3212895393371582
1707576960771214000,9.330214111328125,0.7083759307861328,-0.27482128143310547,0.4211113452911377
1707576960790106600,9.349106689453125,0.12995052337646484,-0.22315263748168945,0.4204365015029907
1707576960808999200,9.367999267578124,-0.5701417922973633,0.07220458984375,0.03245961666107178
1707576960827891700,9.3868916015625,-0.8121800422668457,0.14216136932373047,-0.05534052848815918
1707576960846784300,9.4057841796875,-0.7085561752319336,0.13897037506103516,-0.44805943965911865
1707576960865676800,9.4246767578125,-0.5633120536804199,0.2429032325744629,-0.41924047470092773
1707576960884569300,9.4435693359375,-0.5377893447875977,0.31394004821777344,-0.21716880798339844
1707576960903462000,9.4624619140625,-0.2812504768371582,0.4754648208618164,-0.2512601613998413
1707576960922354700,9.481354736328125,0.0631704330444336,0.26580286026000977,-0.23755872249603271
1707576960941247200,9.500247314453125,0.42334938049316406,0.16682672500610352,-0.21476972103118896
1707576960960139800,9.519139892578124,0.7079496383666992,0.0710453987121582,-0.05151474475860596
1707576960979032300,9.5380322265625,0.6440830230712891,0.17003822326660156,-0.2758951187133789
1707576960997924900,9.5569248046875,0.648167610168457,0.24887752532958984,-0.16187822818756104
1707576961016817400,9.5758173828125,0.49628353118896484,0.13064813613891602,0.07171118259429932
1707576961035710000,9.5947099609375,0.2458019256591797,0.07075977325439453,0.3158940076828003
1707576961054602500,9.6136025390625,0.152191162109375,-0.04303550720214844,0.5010465383529663
1707576961073495000,9.6324951171875,-0.07959556579589844,-0.12564563751220703,0.21693766117095947
1707576961092387800,9.651387939453125,-0.259124755859375,-0.26645803451538086,0.0421297550201416
1707576961111280400,9.6702802734375,-0.45491981506347656,-0.30579614639282227,-0.04977989196777344
1707576961130173000,9.6891728515625,-0.45990943908691406,-0.3042130470275879,-0.12007486820220947
1707576961149065500,9.7080654296875,-0.31946277618408203,-0.18623924255371094,-0.09950292110443115
1707576961167958000,9.7269580078125,-0.04099273681640625,0.017570018768310547,0.003713369369506836
1707576961186850600,9.7458505859375,0.16289806365966797,0.049074649810791016,0.11128675937652588
1707576961205743000,9.7647431640625,0.22710323333740234,0.004054069519042969,0.12355911731719971
1707576961224635600,9.7836357421875,0.1571502685546875,0.04550981521606445,0.11292445659637451
1707576961243528200,9.802528076171875,0.180694580078125,0.02787494659423828,0.18857884407043457
1707576961262420700,9.821420654296874,0.17464542388916016,0.0632328987121582,0.12580907344818115
1707576961281313500,9.8403134765625,0.14952373504638672,0.0536346435546875,-0.10689806938171387
1707576961300206000,9.8592060546875,0.20955848693847656,0.04909563064575195,-0.10264527797698975
1707576961319098600,9.8780986328125,0.3097352981567383,0.012946605682373047,-0.03373384475708008
1707576961337991200,9.8969912109375,0.38533782958984375,0.053236961364746094,-0.07853484153747559
1707576961356883700,9.9158837890625,0.29408931732177734,-0.005131721496582031,-0.14737582206726074
1707576961375776300,9.9347763671875,0.08435821533203125,-0.11975479125976562,-0.07146656513214111
1707576961394668800,9.953668701171875,-0.054688453674316406,-0.15317869186401367,0.103546142578125
1707576961413561600,9.9725615234375,-0.23004627227783203,-0.05721712112426758,0.012945294380187988
1707576961432454000,9.991453857421876,-0.2444744110107422,0.05951261520385742,-0.3789517879486084
1707576961451346700,10.0103466796875,-0.13570022583007812,0.0468440055847168,-0.4567185640335083
1707576961470239200,10.0292392578125,0.0645284652709961,0.0510096549987793,-0.3104691505432129
1707576961489131800,10.0481318359375,0.1728963851928711,0.062417030334472656,-0.00609743595123291
1707576961508024300,10.0670244140625,0.25493717193603516,0.12022781372070312,0.23612070083618164
1707576961526916900,10.085916748046875,0.15193939208984375,0.059332847595214844,0.0812826156616211
1707576961545809400,10.104809326171875,-0.055278778076171875,0.006336212158203125,0.025960206985473633
1707576961564702000,10.123701904296874,-0.20637798309326172,0.015685558319091797,0.08969688415527344
1707576961583594500,10.142594482421876,-0.22071266174316406,0.03121805191040039,0.13719803094863892
1707576961602487300,10.1614873046875,-0.12323760986328125,-0.0001506805419921875,-0.05861926078796387
1707576961621379600,10.180379638671875,0.018095016479492188,0.07424306869506836,-0.26161515712738037
1707576961640272400,10.1992724609375,0.16987991333007812,0.036434173583984375,-0.1581333875656128
1707576961659165000,10.2181650390625,0.20787620544433594,0.03268718719482422,-0.12186741828918457
1707576961678057500,10.237057373046875,0.20408248901367188,0.034502506256103516,-0.049506187438964844
1707576961696950000,10.255949951171875,0.21843338012695312,0.08803558349609375,0.05921030044555664
1707576961715842600,10.274842529296874,0.19422531127929688,0.08873939514160156,-0.011731624603271484
1707576961734735000,10.293735107421876,0.13259506225585938,0.06142377853393555,-0.005202531814575195
1707576961753627600,10.312627685546875,0.0428619384765625,-0.03847694396972656,-0.07020199298858643
1707576961772520400,10.3315205078125,-0.12475872039794922,-0.006202220916748047,-0.009618997573852539
1707576961791412700,10.350412841796874,-0.262662410736084,0.04116535186767578,0.05108368396759033
1707576961810305500,10.369305419921876,-0.26861000061035156,0.050696372985839844,0.05753600597381592
1707576961829198000,10.388197998046875,-0.22246742248535156,0.057152748107910156,0.06282258033752441
1707576961848090600,10.407090576171875,-0.1083822250366211,0.04335498809814453,0.015011072158813477
1707576961866983200,10.425983154296874,0.1702880859375,0.05156898498535156,-0.06195628643035889
1707576961885875700,10.444875732421876,0.5991077423095703,-0.014443397521972656,-0.0721125602722168
1707576961904768300,10.463768310546875,0.6616935729980469,0.09330224990844727,-0.028408527374267578
1707576961923660800,10.482660888671875,0.3376913070678711,-0.013604164123535156,-0.19541549682617188
1707576961942553300,10.50155322265625,-0.1307048797607422,-0.10122251510620117,-0.02940070629119873
1707576961961446100,10.520446044921876,-0.43337249755859375,0.020166873931884766,0.007865071296691895
1707576961980338700,10.539338623046875,-0.4707622528076172,-0.015665054321289062,0.15854966640472412
1707576961999231200,10.558231201171875,-0.29302453994750977,0.00209808349609375,0.162447988986969
1707576962018123800,10.577123779296874,-0.03487730026245117,0.06354951858520508,0.05795323848724365
1707576962037016300,10.596016357421876,0.17154359817504883,0.0813150405883789,-0.07081019878387451
1707576962055908900,10.614908935546875,0.2684593200683594,0.016900062561035156,-0.10607802867889404
1707576962074801400,10.633801513671875,0.2360367774963379,-0.033779144287109375,-0.058422088623046875
1707576962093694000,10.65269384765625,0.23169183731079102,-0.015284061431884766,-0.08629155158996582
1707576962112586500,10.67158642578125,0.10885047912597656,-0.02227163314819336,-0.09523308277130127
1707576962131479300,10.690479248046875,-0.03995800018310547,-0.0764307975769043,-0.07862162590026855
1707576962150371600,10.70937158203125,-0.18234968185424805,-0.07024621963500977,0.03908693790435791
1707576962169264400,10.728264404296874,-0.3458843231201172,-0.03920125961303711,0.15832239389419556
1707576962188157000,10.747156982421876,-0.3492121696472168,0.026805400848388672,0.20679455995559692
1707576962207049500,10.766049560546875,-0.3187723159790039,0.04812812805175781,0.18309438228607178
1707576962225942000,10.78494189453125,-0.3289494514465332,0.0030126571655273438,0.12976503372192383
1707576962244834600,10.80383447265625,-0.3946876525878906,0.01976919174194336,0.04423445463180542
1707576962263727000,10.82272705078125,-0.3625307083129883,0.07719898223876953,-0.04238247871398926
1707576962282619600,10.84161962890625,-0.2494792938232422,0.038954734802246094,-0.13934999704360962
1707576962301512200,10.86051220703125,-0.040186405181884766,0.02927684783935547,-0.190185546875
1707576962320405000,10.879405029296874,0.06907081604003906,-0.004054546356201172,-0.0036233067512512207
1707576962339297500,10.898297607421876,0.12646865844726562,-0.04550790786743164,0.049699246883392334
1707576962358190000,10.917190185546875,0.050418853759765625,-0.08279132843017578,0.11493867635726929
1707576962377082600,10.93608251953125,-0.05627298355102539,-0.0503087043762207,0.1417790651321411
1707576962395975200,10.95497509765625,-0.06300497055053711,-0.03277730941772461,0.18080788850784302
1707576962414867700,10.97386767578125,0.13429689407348633,0.003097057342529297,0.108573317527771
1707576962433760300,10.99276025390625,0.6375107765197754,0.1835622787475586,-0.5052018165588379
1707576962452652800,11.01165283203125,0.8711614608764648,0.15995121002197266,-0.441495418548584
1707576962471545300,11.03054541015625,0.7528009414672852,0.05542945861816406,-0.11198139190673828
1707576962490438100,11.049438232421876,0.2889680862426758,0.04229164123535156,0.27442610263824463
1707576962509330400,11.068330322265625,-0.2376713752746582,0.0014638900756835938,0.2826509475708008
1707576962528223200,11.08722314453125,-0.5607962608337402,-0.06489276885986328,0.045327067375183105
1707576962547115800,11.10611572265625,-0.7184505462646484,-0.0767984390258789,-0.11187970638275146
1707576962566008300,11.12500830078125,-0.49155569076538086,-0.09554195404052734,-0.13619756698608398
1707576962584900900,11.14390087890625,-0.15494155883789062,-0.020245075225830078,-0.036251068115234375
1707576962603793400,11.16279345703125,0.21819543838500977,0.04306840896606445,0.039571166038513184
1707576962622686000,11.18168603515625,0.46218442916870117,0.05656147003173828,0.10846197605133057
1707576962641578500,11.20057861328125,0.587984561920166,0.03681516647338867,0.07887375354766846
1707576962660471300,11.21947119140625,0.5214190483093262,-0.1576094627380371,0.15759122371673584
1707576962679363800,11.23836376953125,0.27065467834472656,-0.2525601387023926,0.26050448417663574
1707576962698256400,11.25725634765625,0.0048885345458984375,-0.1578378677368164,0.22583025693893433
1707576962717149000,11.27614892578125,-0.2667522430419922,-0.1321883201599121,0.19867968559265137
1707576962736041500,11.29504150390625,-0.37363624572753906,-0.21212387084960938,0.2756834030151367
1707576962754934000,11.31393408203125,-0.35401010513305664,-0.18419313430786133,0.23061645030975342
1707576962773826600,11.33282666015625,-0.20245695114135742,-0.31665706634521484,0.3721129894256592
1707576962792719000,11.351718994140626,-0.05802106857299805,-0.31219911575317383,0.3699237108230591
1707576962811611600,11.370611572265625,0.18434619903564453,-0.10487699508666992,0.11723613739013672
1707576962830504200,11.389504150390625,0.44495630264282227,0.28289794921875,-0.44540345668792725
1707576962849397000,11.40839697265625,0.4235539436340332,0.43975019454956055,-0.6895660161972046
1707576962868289300,11.427289306640626,0.2989349365234375,0.3189983367919922,-0.614298939704895
1707576962887182000,11.44618212890625,0.12126493453979492,0.16496753692626953,-0.1926414966583252
1707576962906074600,11.46507470703125,0.06214332580566406,0.05173444747924805,0.15150773525238037
1707576962924967200,11.48396728515625,0.04365110397338867,-0.0685567855834961,0.19497966766357422
1707576962943859700,11.502859619140626,0.1372699737548828,0.03588724136352539,-0.22112464904785156
1707576962962752300,11.521752197265625,0.393310546875,0.26199769973754883,-0.5678888559341431
1707576962981644800,11.540644775390625,0.19898605346679688,0.17635488510131836,-0.3176518678665161
1707576963000537300,11.559537353515625,-1.4082460403442383,0.08512306213378906,-0.20710933208465576
1707576963019430100,11.57843017578125,-1.817007064819336,0.33528661727905273,-0.631440281867981
1707576963038322400,11.597322509765625,-0.15380477905273438,-0.02851724624633789,-0.011469602584838867
1707576963057215200,11.61621533203125,1.1285090446472168,0.07347869873046875,0.3392990827560425
1707576963076107800,11.635107666015625,1.7976975440979004,0.048175811767578125,0.563581109046936
1707576963095000300,11.654000244140626,0.9015474319458008,0.25530576705932617,-0.11481404304504395
1707576963113892900,11.672892822265625,-0.7183480262756348,-0.05253791809082031,-0.5060997009277344
1707576963132785400,11.691785400390625,-1.7326598167419434,-0.32317209243774414,-0.3800913095474243
1707576963151678000,11.710677978515625,-1.5575485229492188,-0.2501993179321289,0.015410661697387695
1707576963170570500,11.729570556640626,-0.629669189453125,-0.16034841537475586,0.40026402473449707
1707576963189463000,11.748463134765625,0.19368839263916016,-0.3796420097351074,0.6998816728591919
1707576963208355600,11.76735546875,0.5942959785461426,-0.5013542175292969,0.4680434465408325
1707576963227248000,11.786248046875,0.6762080192565918,-0.5833897590637207,0.4326958656311035
1707576963246141000,11.805140869140626,0.7113547325134277,-0.19668912887573242,0.20830166339874268
1707576963265033500,11.824033447265625,0.629981517791748,0.19652700424194336,0.09863007068634033
1707576963283926000,11.842926025390625,0.2131671905517578,0.37492990493774414,-0.14415466785430908
1707576963302818600,11.861818603515625,-0.18992090225219727,0.34933996200561523,-0.14922213554382324
1707576963321711000,11.880711181640624,-0.6681532859802246,0.18686389923095703,-0.04485344886779785
1707576963340603600,11.899603759765625,-0.9281473159790039,0.09775590896606445,-0.04625427722930908
1707576963359496200,11.91849609375,-0.7330107688903809,0.27349185943603516,-0.09546196460723877
1707576963378388700,11.937388671875,-0.5024476051330566,0.30556297302246094,0.025601744651794434
1707576963397281300,11.95628125,-0.2537083625793457,0.12227249145507812,-0.04621529579162598
1707576963416174000,11.975174072265625,0.11063480377197266,-0.040360450744628906,0.10802340507507324
1707576963435066400,11.99406640625,0.28876829147338867,-0.05373048782348633,0.28624725341796875
1707576963453959200,12.012959228515625,0.19600152969360352,0.12257194519042969,0.1673600673675537
1707576963472851700,12.031851806640624,-0.14690637588500977,0.14290571212768555,0.08408856391906738
1707576963491744300,12.050744140625,-0.24197626113891602,-0.07509946823120117,-0.061487674713134766
1707576963510636800,12.06963671875,-0.06668758392333984,-0.24654817581176758,-0.24621200561523438
1707576963529529300,12.088529296875,0.2987213134765625,-0.08198261260986328,-0.4650723934173584
1707576963548422000,12.107421875,0.28046607971191406,0.13443708419799805,-0.33492255210876465
1707576963567314400,12.126314453125,-0.04583597183227539,0.0644078254699707,-0.005548715591430664
1707576963586207200,12.145207275390625,-0.38129568099975586,0.07685708999633789,0.13937366008758545
1707576963605099500,12.164099609375,-0.5570926666259766,0.11931848526000977,0.130851149559021
1707576963623992300,12.182992431640624,0.1404399871826172,0.18912887573242188,0.051528096199035645
1707576963642884900,12.201884765625,0.11973953247070312,0.13835525512695312,0.11609935760498047
1707576963661777400,12.22077734375,-0.0408015251159668,0.09425973892211914,-0.055964112281799316
1707576963680670000,12.239669921875,-0.04631233215332031,-0.037960052490234375,-0.10716652870178223
1707576963699562500,12.2585625,0.11334419250488281,-0.004100799560546875,-0.25125396251678467
1707576963718455000,12.277455078125,0.1416187286376953,0.05526542663574219,-0.1002885103225708
1707576963737347600,12.29634765625,-0.03860282897949219,0.1224822998046875,0.026300430297851562
1707576963756240100,12.315240234375,-0.20084714889526367,0.10802888870239258,0.2088475227355957
1707576963775132700,12.334132568359376,-0.08261299133300781,0.08416271209716797,0.3639681339263916
1707576963794025200,12.353025146484375,-0.00845193862915039,0.06652641296386719,0.2489835023880005
1707576963812918000,12.37191796875,0.13517427444458008,0.09513521194458008,0.2343538999557495
1707576963831810600,12.390810546875,0.16957473754882812,0.04895925521850586,0.28668177127838135
1707576963850703000,12.409703125,0.051568031311035156,-0.06795454025268555,0.1192173957824707
1707576963869595600,12.428595703125,-0.07056951522827148,-0.18079471588134766,0.047860026359558105
1707576963888488200,12.44748828125,-0.11207723617553711,-0.22474431991577148,-0.1433098316192627
1707576963907380700,12.466380615234375,-0.17327117919921875,-0.15960216522216797,-0.43809592723846436
1707576963926273300,12.485273193359374,-0.03753232955932617,-0.04674816131591797,-0.4546089172363281
1707576963945165800,12.504165771484375,-0.07774591445922852,0.07217121124267578,-0.20868241786956787
1707576963964058400,12.523058349609375,-0.1278395652770996,0.1282052993774414,-0.1391739845275879
1707576963982951200,12.541951171875,-0.1393580436706543,0.03806257247924805,-0.08533847332000732
1707576964001843500,12.560843505859374,0.0063018798828125,0.03298807144165039,-0.1663597822189331
1707576964020736300,12.579736328125,0.06497621536254883,0.027753353118896484,-0.16076350212097168
1707576964039628800,12.59862890625,-0.06073808670043945,-0.029264450073242188,-0.050515055656433105
1707576964058521300,12.617521240234375,-0.21906661987304688,0.11441755294799805,-0.120369553565979
1707576964077414000,12.636413818359374,-0.19875001907348633,0.5991816520690918,-0.07588088512420654
1707576964096306400,12.655306396484375,-0.04206514358520508,0.42656469345092773,0.26351499557495117
1707576964115199000,12.674198974609375,-0.0836634635925293,0.4356260299682617,0.7928813695907593
1707576964134091500,12.693091552734375,-0.3786177635192871,0.9267663955688477,1.7585837841033936
1707576964152984000,12.711984130859374,-0.6306962966918945,0.4815540313720703,0.8762578964233398
1707576964171876600,12.730876708984376,-0.5650639533996582,-0.1755199432373047,0.8218376636505127
1707576964190769400,12.749769287109375,-0.1304025650024414,-0.5343341827392578,0.33044540882110596
1707576964209661700,12.76866162109375,-0.4376664161682129,-0.5800662040710449,0.3990046977996826
1707576964228554500,12.787554443359374,-0.14655303955078125,-0.7776598930358887,-0.2086857557296753
1707576964247447000,12.806447021484376,-0.0418400764465332,-0.6980986595153809,-0.7470217943191528
1707576964266339600,12.825339599609375,0.8390398025512695,-0.7707314491271973,-1.0691758394241333
1707576964285232000,12.844232177734375,1.7032413482666016,-0.3414483070373535,-1.7356220483779907
1707576964304124700,12.863124755859374,2.0151147842407227,-0.12987756729125977,-1.1185455322265625
1707576964323017200,12.882017333984376,2.057954788208008,-0.004415035247802734,-0.521588921546936
1707576964341909800,12.90090966796875,1.757791519165039,-0.08063602447509766,-0.5859626531600952
1707576964360802300,12.91980224609375,0.8663768768310547,-0.5333442687988281,-1.0472713708877563
1707576964379694800,12.93869482421875,-0.1384735107421875,-0.17275190353393555,-0.6871105432510376
1707576964398587600,12.957587646484376,-0.5099620819091797,0.20773077011108398,-0.0967254638671875
1707576964417480000,12.97647998046875,-1.1922025680541992,0.20072603225708008,-0.05915045738220215
1707576964436372700,12.995372802734375,-1.6384916305541992,0.198822021484375,-0.18201017379760742
1707576964455265300,13.014265380859374,-1.752800464630127,0.22228288650512695,0.13668107986450195
1707576964474157800,13.03315771484375,-1.8646445274353027,0.2516050338745117,0.32345592975616455
1707576964493050400,13.05205029296875,-1.2178301811218262,0.17246246337890625,-0.011611342430114746
1707576964511943000,13.07094287109375,-0.18253517150878906,-0.0029311180114746094,-0.4908723831176758
1707576964530835500,13.08983544921875,0.4965090751647949,-0.20747041702270508,-0.5348796844482422
1707576964549728000,13.10872802734375,0.8286528587341309,-0.47180843353271484,-0.11333322525024414
1707576964568620500,13.12762060546875,0.9026098251342773,-0.5487608909606934,0.3510666489601135
1707576964587513000,13.14651318359375,0.8554573059082031,-0.544853687286377,0.6092439293861389
1707576964606405600,13.165405517578124,0.5574865341186523,-0.715644359588623,0.5803403258323669
1707576964625298400,13.18429833984375,0.12157249450683594,-0.38719892501831055,0.45234251022338867
1707576964644191000,13.20319091796875,-0.0952005386352539,0.012730598449707031,0.37413930892944336
1707576964663083500,13.22208349609375,-0.1654658317565918,0.11101007461547852,0.19550937414169312
1707576964681976000,13.24097607421875,-0.042799949645996094,0.14018821716308594,-0.20199084281921387
1707576964700868600,13.25986865234375,0.3214545249938965,0.19926977157592773,-0.2320113182067871
1707576964719761200,13.27876123046875,0.34393787384033203,0.018065452575683594,-0.21888518333435059
1707576964738653700,13.29765380859375,0.0371861457824707,-0.07663774490356445,-0.03150022029876709
1707576964757546200,13.316546142578124,-0.22296667098999023,-0.07219457626342773,-0.09108185768127441
1707576964776438800,13.335438720703126,-0.11932945251464844,-0.11527204513549805,-0.29064226150512695
1707576964795331300,13.354331298828125,0.46631669998168945,-0.1968517303466797,-0.19052958488464355
1707576964814224000,13.373223876953125,1.21097993850708,-0.19997549057006836,0.04096245765686035
1707576964833116400,13.392116455078124,0.9972810745239258,-0.019259929656982422,-0.1952817440032959
1707576964852009000,13.411009033203126,0.2966160774230957,0.23840904235839844,-0.08231329917907715
1707576964870901800,13.42990185546875,-0.08812713623046875,0.12502670288085938,0.07445603609085083
