time,seconds_elapsed,z,y,x
1707603329278792000,0.0307919921875,0,0,0
1707603329297685500,0.049685546875,-0.010054588317871094,-0.03864431381225586,0.015036851167678833
1707603329316579000,0.0685791015625,-0.08456039428710938,-0.05527973175048828,0.027368247509002686
1707603329335473000,0.087472900390625,-0.07630443572998047,-0.01257467269897461,0.07866749167442322
1707603329354366500,0.106366455078125,0.035832881927490234,-0.01412057876586914,0.07521799206733704
1707603329373260000,0.125260009765625,0.035115718841552734,-0.004399299621582031,0.11337964236736298
1707603329392153900,0.14415380859375,0.08713245391845703,0.05154705047607422,0.09617210924625397
1707603329411047400,0.16304736328125,0.13451671600341797,0.06588077545166016,-0.188023179769516
1707603329429941200,0.181941162109375,0.20731878280639648,0.1020975112915039,-0.36688709259033203
1707603329448834800,0.200834716796875,0.2029585838317871,0.27750682830810547,-0.12312610447406769
1707603329467728400,0.219728271484375,0.2110433578491211,0.08008241653442383,-0.16990779340267181
1707603329486622200,0.238622314453125,0.20904064178466797,-0.0018405914306640625,-0.15549761056900024
1707603329505515800,0.257515869140625,0.20281410217285156,0.052659034729003906,0.05001968517899513
1707603329524409600,0.27640966796875,0.12305593490600586,0.09917593002319336,0.2038073092699051
1707603329543303200,0.29530322265625,-0.10624361038208008,0.0728917121887207,0.2982012629508972
1707603329562196700,0.31419677734375,-0.3267831802368164,0.08475065231323242,-0.011891452595591545
1707603329581090600,0.333090576171875,-0.41370582580566406,0.21976852416992188,-0.29008951783180237
1707603329599984000,0.351984130859375,-0.48119449615478516,0.21834945678710938,-0.20434820652008057
1707603329618877700,0.370877685546875,-0.3466529846191406,0.20173978805541992,0.01745869219303131
1707603329637771300,0.389771240234375,-0.08574295043945312,0.16711807250976562,0.040620043873786926
1707603329656665000,0.4086650390625,0.08919477462768555,0.1275339126586914,-0.21334560215473175
1707603329675558700,0.42755859375,0.09336185455322266,0.1549820899963379,-0.42662855982780457
1707603329694452500,0.446452392578125,0.10611152648925781,0.2963576316833496,-0.6097903251647949
1707603329713346000,0.465345947265625,0.3476262092590332,0.06125974655151367,-0.6634906530380249
1707603329732239600,0.484239501953125,0.6342644691467285,0.2746109962463379,-0.4539373517036438
1707603329751133400,0.503133544921875,0.7505068778991699,-0.0016641616821289062,-0.5682467222213745
1707603329770027000,0.522027099609375,0.691643238067627,-0.12583255767822266,-0.12442198395729065
1707603329788920800,0.5409208984375,0.5729799270629883,-0.44982242584228516,-0.29006972908973694
1707603329807814400,0.559814453125,0.5580058097839355,-1.2185916900634766,-0.36962440609931946
1707603329826708000,0.5787080078125,0.15085887908935547,-1.3172173500061035,-0.7931223511695862
1707603329845601800,0.597601806640625,-0.6217646598815918,-1.051619052886963,-0.8534517884254456
1707603329864495400,0.616495361328125,-0.8064150810241699,-0.9315123558044434,-1.2564162015914917
1707603329883389000,0.635388916015625,-0.7721357345581055,-0.3019399642944336,-0.3175402879714966
1707603329902282800,0.65428271484375,0.27474164962768555,0.38550519943237305,1.5121759176254272
1707603329921176300,0.67317626953125,0.6821799278259277,0.37177467346191406,2.2140235900878906
1707603329940070100,0.692070068359375,0.9567141532897949,0.9048123359680176,3.105266571044922
1707603329958963700,0.710963623046875,0.8151760101318359,1.0916814804077148,2.2932229042053223
1707603329977857300,0.729857177734375,0.9512820243835449,1.7831830978393555,0.24428272247314453
1707603329996750800,0.748750732421875,2.1986708641052246,3.5542221069335938,-3.071282386779785
1707603330015644700,0.767644775390625,3.7348856925964355,4.031328201293945,-9.655834197998047
1707603330034538200,0.786538330078125,5.330234050750732,4.702049255371094,-8.950337409973145
1707603330053431800,0.805431884765625,5.487637519836426,3.759023666381836,-6.66859245300293
1707603330072325600,0.82432568359375,5.190219879150391,2.2522754669189453,-1.5675181150436401
1707603330091219200,0.84321923828125,3.9016222953796387,-1.4465532302856445,-3.96481990814209
1707603330110113000,0.862113037109375,2.897223949432373,-4.606614112854004,-0.5508697032928467
1707603330129006600,0.881006591796875,4.342031955718994,-8.39539623260498,2.3338701725006104
1707603330147900200,0.899900146484375,4.410423755645752,-11.942235946655273,5.353667736053467
1707603330166794000,0.9187939453125,2.360934019088745,-13.411943435668945,9.26456356048584
1707603330185687600,0.9376875,1.1740548610687256,-12.886962890625,11.45128345489502
1707603330204581400,0.956581298828125,-0.2395911067724228,-12.323138236999512,11.185224533081055
1707603330223475000,0.975474853515625,-2.1470704078674316,-10.727751731872559,9.30070972442627
1707603330242368500,0.994368408203125,-2.4709558486938477,-8.021172523498535,4.882386207580566
1707603330261262300,1.013262451171875,-1.5356674194335938,-3.5690765380859375,-0.34312891960144043
1707603330280156000,1.032156005859375,-0.3311905264854431,1.81671142578125,-4.689366817474365
1707603330299049500,1.051049560546875,-1.5622401237487793,6.582378387451172,-7.633087635040283
1707603330317943000,1.069943115234375,-4.166153430938721,10.603456497192383,-8.528071403503418
1707603330336836900,1.0888369140625,-7.608144760131836,12.569320678710938,-10.031855583190918
1707603330355730400,1.10773046875,-10.347277641296387,11.906098365783691,-10.95932388305664
1707603330374624300,1.126624267578125,-10.52872085571289,10.013761520385742,-10.492866516113281
1707603330393517800,1.145517822265625,-7.276222229003906,6.2100419998168945,-8.664762496948242
1707603330412411400,1.164411376953125,-2.8272361755371094,1.3471689224243164,-5.988846778869629
1707603330431305200,1.18330517578125,1.8603291511535645,-3.39625883102417,-2.0080411434173584
1707603330450198800,1.20219873046875,5.208024024963379,-7.293701171875,-0.5559844970703125
1707603330469092400,1.22109228515625,7.95966911315918,-10.737777709960938,1.8199219703674316
1707603330487986200,1.239986083984375,10.94011402130127,-12.485918045043945,6.0879292488098145
1707603330506879700,1.258879638671875,11.331440925598145,-13.619956970214844,9.360700607299805
1707603330525773600,1.277773681640625,8.163522720336914,-13.401840209960938,10.970512390136719
1707603330544667100,1.296667236328125,4.0597100257873535,-12.711174964904785,10.498760223388672
1707603330563560700,1.315560791015625,0.13533830642700195,-10.06209659576416,6.442794322967529
1707603330582454500,1.33445458984375,-2.136457920074463,-6.548203468322754,2.30008602142334
1707603330601348000,1.35334814453125,-4.970178604125977,-2.39150333404541,-1.8914246559143066
1707603330620241700,1.37224169921875,-6.7977294921875,1.8927979469299316,-4.711677551269531
1707603330639135500,1.391135498046875,-7.969844341278076,5.921935558319092,-3.7844958305358887
1707603330658029000,1.410029052734375,-10.039237976074219,8.604568481445312,-4.128548622131348
1707603330676922600,1.428922607421875,-10.90260124206543,11.17510986328125,-4.797095775604248
1707603330695816400,1.44781640625,-10.976318359375,13.108564376831055,-5.85861873626709
1707603330714710000,1.4667099609375,-9.289809226989746,12.045614242553711,-9.492412567138672
1707603330733603600,1.485603515625,-3.0600717067718506,7.8613080978393555,-11.468338966369629
1707603330752497400,1.504497314453125,4.339211940765381,3.754253387451172,-9.320865631103516
1707603330771391000,1.523390869140625,8.52692985534668,-1.2301626205444336,-5.510734558105469
1707603330790284800,1.542284912109375,9.994866371154785,-5.0209150314331055,-3.508063316345215
1707603330809178400,1.561178466796875,10.22258472442627,-9.190722465515137,-1.1813879013061523
1707603330828072000,1.580072021484375,5.259040832519531,-12.362317085266113,2.8184962272644043
1707603330846965800,1.5989658203125,0.40700793266296387,-14.641292572021484,5.180455684661865
1707603330865859300,1.617859375,-2.149327516555786,-16.035619735717773,9.075174331665039
1707603330884753000,1.6367529296875,-5.203235149383545,-16.202468872070312,12.646389961242676
1707603330903646700,1.655646728515625,-5.613568305969238,-14.509521484375,12.388839721679688
1707603330922540300,1.674540283203125,-4.439227104187012,-12.112449645996094,9.980533599853516
1707603330941434000,1.69343408203125,-4.556980133056641,-8.484715461730957,5.490361213684082
1707603330960327700,1.71232763671875,-5.585156440734863,-3.546353340148926,-0.9869327545166016
1707603330979221200,1.73122119140625,-7.4543843269348145,3.2205257415771484,-7.113107681274414
1707603330998114800,1.75011474609375,-6.961416721343994,9.737115859985352,-10.070442199707031
1707603331017008600,1.769008544921875,-3.261188507080078,15.13616943359375,-11.114103317260742
1707603331035902200,1.787902099609375,2.0064992904663086,17.111005783081055,-11.778607368469238
1707603331054795800,1.806795654296875,7.598390579223633,15.766983032226562,-12.068620681762695
1707603331073689600,1.825689697265625,12.963644981384277,12.45220947265625,-11.368325233459473
1707603331092583200,1.844583251953125,15.700859069824219,8.055656433105469,-9.315690994262695
1707603331111477000,1.86347705078125,13.755755424499512,2.769857406616211,-6.975360870361328
1707603331130370600,1.88237060546875,7.897891044616699,-2.3033370971679688,-5.183627605438232
1707603331149264100,1.90126416015625,3.5102953910827637,-6.776775360107422,-3.86533260345459
1707603331168158000,1.920157958984375,0.07752275466918945,-10.42237663269043,-1.49397611618042
1707603331187051500,1.939051513671875,-3.158813238143921,-13.023343086242676,2.110414981842041
1707603331205945000,1.957945068359375,-4.583949089050293,-14.540884017944336,6.161070823669434
1707603331224838700,1.976838623046875,-5.031987190246582,-15.080568313598633,10.606346130371094
1707603331243732500,1.995732421875,-3.0631535053253174,-15.164018630981445,13.091840744018555
1707603331262626300,2.014626220703125,-0.31087708473205566,-13.982017517089844,12.899860382080078
1707603331281519900,2.033519775390625,0.6029973030090332,-12.329505920410156,10.228224754333496
1707603331300413400,2.052413330078125,-0.05841875076293945,-9.790641784667969,7.803639888763428
1707603331319307000,2.07130712890625,-1.790008783340454,-6.470520973205566,5.064486026763916
1707603331338200800,2.090200927734375,-4.189777374267578,-2.3340978622436523,-0.302642822265625
1707603331357094400,2.109094482421875,-5.970880508422852,4.226382732391357,-11.887752532958984
1707603331375988200,2.12798828125,-4.299906253814697,11.693835258483887,-27.44147491455078
1707603331394881800,2.1468818359375,1.4277375936508179,14.300542831420898,-28.150545120239258
1707603331413775400,2.165775390625,11.053352355957031,11.785337448120117,-14.506852149963379
1707603331432669200,2.184669189453125,17.579233169555664,8.263205528259277,-4.663364887237549
1707603331451562800,2.203562744140625,16.536481857299805,3.5709705352783203,-1.802772045135498
1707603331470456300,2.222456298828125,10.806490898132324,-0.5830416679382324,-2.8817310333251953
1707603331489350100,2.24135009765625,4.930994510650635,-4.931014060974121,-4.353851795196533
1707603331508243700,2.26024365234375,-0.5747599601745605,-8.699878692626953,-3.6312625408172607
1707603331527137500,2.279137451171875,-4.190752983093262,-10.741865158081055,-0.6675667762756348
1707603331546031000,2.298031005859375,-5.618796348571777,-11.846412658691406,4.407169342041016
1707603331564924700,2.316924560546875,-5.326681137084961,-12.506038665771484,10.1112699508667
1707603331583818200,2.335818359375,-3.58801531791687,-11.956716537475586,14.681474685668945
1707603331602712000,2.354712158203125,-1.4604408740997314,-12.030778884887695,16.19812774658203
1707603331621605600,2.373605712890625,1.5485973358154297,-11.904657363891602,14.262191772460938
1707603331640499200,2.392499267578125,3.5159268379211426,-10.302618980407715,11.408348083496094
1707603331659393000,2.41139306640625,3.2243921756744385,-8.348642349243164,7.9499430656433105
1707603331678286600,2.43028662109375,1.6671054363250732,-5.09477424621582,-0.6450176239013672
1707603331697180400,2.449180419921875,-0.5548889636993408,4.126596450805664,-20.673599243164062
1707603331716074000,2.468073974609375,-0.7467219829559326,9.949925422668457,-30.582332611083984
1707603331734967600,2.486967529296875,4.4801201820373535,11.722403526306152,-25.352680206298828
1707603331753861400,2.505861328125,10.366523742675781,10.317465782165527,-11.986350059509277
1707603331772755000,2.5247548828125,10.438468933105469,6.392665863037109,-1.70966374874115
1707603331791648500,2.5436484375,6.142214298248291,1.5225858688354492,1.7792291641235352
1707603331810542300,2.562542236328125,1.0279114246368408,-2.0603866577148438,1.4520173072814941
1707603331829436000,2.581435791015625,-2.410884141921997,-5.440128326416016,2.4934773445129395
1707603331848329700,2.600329833984375,-4.2938666343688965,-8.589813232421875,6.507613658905029
1707603331867223300,2.619223388671875,-3.44149112701416,-10.643856048583984,11.025506019592285
1707603331886116900,2.638116943359375,-1.481799602508545,-11.614888191223145,14.140439987182617
1707603331905010400,2.657010498046875,-0.04066324234008789,-11.298798561096191,11.806434631347656
1707603331923904300,2.675904296875,0.9061903953552246,-8.654723167419434,4.957651138305664
1707603331942797800,2.6947978515625,0.05253934860229492,-3.8292150497436523,-1.4771820306777954
1707603331961691600,2.713691650390625,-1.819922685623169,2.601304054260254,-8.481942176818848
1707603331980585200,2.732585205078125,-3.7576332092285156,7.7893829345703125,-11.725728988647461
1707603331999478800,2.751478759765625,-3.9929096698760986,10.547515869140625,-12.403886795043945
1707603332018372600,2.77037255859375,-3.1813888549804688,10.058257102966309,-11.739897727966309
1707603332037266200,2.78926611328125,-1.2446050643920898,7.273215293884277,-8.601618766784668
1707603332056159700,2.80815966796875,1.820842981338501,2.8570947647094727,-3.841226100921631
1707603332075053600,2.827053466796875,5.044253826141357,-1.5017385482788086,0.6441290378570557
1707603332093947100,2.845947021484375,6.776006698608398,-4.4570393562316895,2.8979434967041016
1707603332112841000,2.864841064453125,6.402595520019531,-7.471356391906738,5.6406779289245605
1707603332131734500,2.883734619140625,5.451708793640137,-9.437604904174805,9.094700813293457
1707603332150628000,2.902628173828125,4.409186363220215,-10.287471771240234,11.067461013793945
1707603332169522000,2.92152197265625,2.526965618133545,-10.784024238586426,11.835455894470215
1707603332188415500,2.94041552734375,-0.004389941692352295,-10.634734153747559,11.10483455657959
1707603332207309000,2.95930908203125,-2.2782280445098877,-10.033273696899414,6.1929450035095215
1707603332226203000,2.978202880859375,-3.76218581199646,-5.173479080200195,-5.132659435272217
1707603332263990000,3.015989990234375,0.6094145774841309,4.814040184020996,-9.166328430175781
1707603332282883800,3.0348837890625,-0.5441074371337891,7.156134605407715,-10.126673698425293
1707603332301777400,3.05377734375,-5.972507476806641,8.244317054748535,-11.513705253601074
1707603332320671000,3.0726708984375,-11.751633644104004,7.483746528625488,-10.508807182312012
1707603332339564800,3.091564697265625,-12.77706241607666,4.585173606872559,-9.25722599029541
1707603332358458400,3.110458251953125,-8.122078895568848,1.6605510711669922,-8.546335220336914
1707603332377352200,3.129352294921875,-2.6334614753723145,-2.083036422729492,-6.431835174560547
1707603332396245800,3.148245849609375,1.7115870714187622,-6.633640766143799,-0.3376769423484802
1707603332415139300,3.167139404296875,5.723201274871826,-8.434446334838867,7.1327619552612305
1707603332434033000,3.186032958984375,8.10081672668457,-8.64194393157959,11.733084678649902
1707603332452926500,3.204926513671875,7.969490051269531,-8.751875877380371,13.58129596710205
1707603332471820300,3.2238203125,6.070559024810791,-7.695352077484131,11.197627067565918
1707603332490713900,3.2427138671875,3.722717046737671,-6.0608930587768555,5.386853218078613
1707603332509607700,3.261607666015625,0.7346941232681274,-1.5602312088012695,-3.3700785636901855
1707603332528501200,3.280501220703125,-1.556699514389038,5.565769195556641,-9.313265800476074
1707603332547394800,3.299394775390625,-4.134860038757324,6.4900007247924805,-6.733064651489258
1707603332566288400,3.318288330078125,-7.554120063781738,4.385170936584473,-2.699361562728882
1707603332585182200,3.33718212890625,-7.705549240112305,1.863168716430664,-2.4776909351348877
1707603332604075800,3.35607568359375,-4.869344711303711,1.1942787170410156,-2.8375744819641113
1707603332622969300,3.37496923828125,-3.5574417114257812,-0.7042970657348633,-2.0503768920898438
1707603332641863200,3.39386328125,-2.3432278633117676,-1.7862234115600586,-1.096405267715454
1707603332660756700,3.4127568359375,-0.7558026313781738,-3.251455307006836,0.48471152782440186
1707603332679650600,3.431650634765625,0.5446772575378418,-4.256640911102295,1.7857099771499634
1707603332698544000,3.450544189453125,1.7705192565917969,-5.045154571533203,3.217695713043213
1707603332717437700,3.469437744140625,2.9250988960266113,-4.608250617980957,3.7451257705688477
1707603332736331500,3.48833154296875,3.3092875480651855,-3.045309543609619,3.0573248863220215
1707603332755225000,3.50722509765625,2.492182731628418,-1.126356601715088,1.8657702207565308
1707603332774119000,3.526118896484375,0.5978760719299316,-0.8257813453674316,0.10609817504882812
1707603332793012500,3.545012451171875,0.006069660186767578,-0.062383174896240234,0.052043795585632324
1707603332811906000,3.563906005859375,1.023897647857666,0.585747241973877,-0.33164024353027344
1707603332830800000,3.5827998046875,-1.267265796661377,-0.40540361404418945,0.24927294254302979
1707603332849693400,3.601693359375,0.8515777587890625,0.22907590866088867,-0.110870361328125
1707603332868587000,3.6205869140625,2.9432907104492188,0.3949251174926758,-0.7421079874038696
1707603332887480800,3.639480712890625,3.024725914001465,0.7021079063415527,-0.7874425053596497
1707603332906374400,3.65837451171875,1.7002973556518555,1.2851858139038086,-1.2829772233963013
1707603332925268000,3.67726806640625,0.38811302185058594,1.3276028633117676,-3.248258590698242
1707603332944161800,3.696161865234375,3.316707134246826,1.3286871910095215,-1.491150140762329
1707603332963055400,3.715055419921875,2.441683769226074,-0.49497461318969727,0.7069498300552368
1707603332981949000,3.733948974609375,0.6928415298461914,-0.6027650833129883,1.0175859928131104
1707603333000842800,3.7528427734375,-0.3170933723449707,0.003987789154052734,0.7809624075889587
1707603333019736300,3.771736328125,-4.358126640319824,0.14733123779296875,0.457969069480896
1707603333038630100,3.790630126953125,-1.586054801940918,0.5529417991638184,1.6845765113830566
1707603333057523700,3.809523681640625,0.7838478088378906,-0.19330835342407227,0.23153984546661377
1707603333076417300,3.828417236328125,1.7356014251708984,-0.00020503997802734375,-0.6830719709396362
1707603333095311000,3.84731103515625,1.588310718536377,-0.5157499313354492,-0.6133150458335876
1707603333114204700,3.86620458984375,0.7800965309143066,-0.414304256439209,-0.7541407942771912
1707603333133098500,3.885098388671875,0.436032772064209,0.31202173233032227,-1.1313207149505615
1707603333151992000,3.903991943359375,1.100660800933838,0.21064472198486328,-0.8541550636291504
1707603333170885600,3.9228857421875,0.9429721832275391,0.0696268081665039,-0.28704214096069336
1707603333189779500,3.941779541015625,-0.6293063163757324,-2.032792091369629,-3.5475730895996094
1707603333208673000,3.960673095703125,-1.4204630851745605,-0.2788677215576172,-3.10811185836792
1707603333227566800,3.97956689453125,0.12723398208618164,1.1423377990722656,1.9202454090118408
1707603333265354000,4.01735400390625,-0.0469365119934082,4.224560260772705,11.24638843536377
1707603333284247600,4.03624755859375,1.2299957275390625,4.370428085327148,14.300891876220703
1707603333303141400,4.055141357421875,4.81080961227417,3.7118563652038574,9.538445472717285
1707603333322035000,4.074034912109375,5.03178596496582,-0.16727638244628906,5.078135013580322
1707603333340928800,4.0929287109375,4.733639717102051,-3.1621932983398438,1.5113317966461182
1707603333359822300,4.111822265625,5.383138179779053,-5.6067399978637695,-2.9516234397888184
1707603333378716000,4.1307158203125,4.4672698974609375,-6.238178730010986,-7.108487129211426
1707603333397609700,4.149609619140625,2.4925057888031006,-6.161972522735596,-8.847969055175781
1707603333416503300,4.16850341796875,1.796755313873291,-7.265974044799805,-7.61297082901001
1707603333435397000,4.187397216796875,2.7781145572662354,-9.080793380737305,-6.619854927062988
1707603333454290700,4.206290771484375,3.3035168647766113,-10.903459548950195,-4.911494731903076
1707603333473184300,4.225184326171875,3.046131134033203,-9.17215347290039,-3.4769394397735596
1707603333492078000,4.244078125,0.3570147752761841,-4.436336040496826,-2.6082682609558105
1707603333510971600,4.2629716796875,-0.14136165380477905,-0.3370790481567383,-1.2059004306793213
1707603333529865500,4.281865478515625,-1.0944722890853882,1.1871747970581055,1.9281067848205566
1707603333548759000,4.300759033203125,-2.025291681289673,3.1370811462402344,3.8503634929656982
1707603333567652600,4.319652587890625,-2.633810520172119,6.406612396240234,3.31963849067688
1707603333586546400,4.33854638671875,-3.8737292289733887,8.907115936279297,1.6814754009246826
1707603333605440000,4.35743994140625,-5.50459623336792,9.039169311523438,2.381330966949463
1707603333624333800,4.376333740234375,-6.322427749633789,5.924875259399414,5.206467151641846
1707603333643227400,4.395227294921875,-6.425329208374023,2.6732330322265625,6.548305988311768
1707603333662121000,4.414120849609375,-5.627946853637695,-0.3956775665283203,2.4179892539978027
1707603333681014500,4.4330146484375,-3.9199864864349365,-3.134282112121582,-2.5296730995178223
1707603333699908400,4.451908447265625,-1.421898603439331,-5.449904918670654,-2.2324650287628174
1707603333718802000,4.470802001953125,1.3065502643585205,-5.915788650512695,-2.4954819679260254
1707603333737695700,4.48969580078125,2.526766777038574,-7.135137557983398,-2.6634280681610107
1707603333756589300,4.50858935546875,3.108863353729248,-7.450040340423584,-1.424303650856018
1707603333775483000,4.52748291015625,3.2625741958618164,-7.08924674987793,-0.401907354593277
1707603333794376700,4.546376708984375,3.1056957244873047,-6.015722751617432,-1.5095329284667969
1707603333813270300,4.565270263671875,3.054131269454956,-4.596186637878418,-3.532475471496582
1707603333832164000,4.5841640625,3.6107540130615234,-2.2337465286254883,-3.439814329147339
1707603333851057700,4.6030576171875,3.955691337585449,2.632902145385742,-0.8744600415229797
1707603333869951200,4.621951171875,3.306380271911621,8.266134262084961,2.2977771759033203
1707603333888845000,4.640844970703125,2.1191158294677734,11.604405403137207,5.310208320617676
1707603333907738600,4.659738525390625,-0.1413968801498413,11.42807388305664,8.130868911743164
1707603333926632400,4.678632568359375,-4.840770244598389,9.097164154052734,10.633185386657715
1707603333945526000,4.697526123046875,-7.367949962615967,5.022825241088867,9.351638793945312
1707603333964419600,4.716419677734375,-6.989171028137207,2.4792985916137695,4.96985387802124
1707603333983313400,4.7353134765625,-5.601174354553223,-0.8602428436279297,1.1034518480300903
1707603334002207000,4.75420703125,-3.145293951034546,-4.743540287017822,-1.5280793905258179
1707603334021100800,4.773100830078125,0.10293912887573242,-8.151774406433105,-3.96724534034729
1707603334039994400,4.791994384765625,2.7391467094421387,-10.480751991271973,-4.175668716430664
1707603334058888000,4.810887939453125,9.41379451751709,-12.136627197265625,-4.196627140045166
1707603334077781500,4.829781494140625,9.287845611572266,-11.405258178710938,-2.8020458221435547
1707603334096675300,4.84867529296875,9.85177230834961,-10.97195053100586,-1.0326582193374634
1707603334115569000,4.86756884765625,6.887882232666016,-9.768052101135254,0.8206098675727844
1707603334134462700,4.886462646484375,3.429931640625,-7.764772415161133,0.8125416040420532
1707603334153356300,4.905356201171875,0.976787805557251,-4.55601692199707,-1.1927616596221924
1707603334172249900,4.924249755859375,-0.8015608787536621,0.9721889495849609,-1.2454532384872437
1707603334191143700,4.943143798828125,-3.2944304943084717,6.719393730163574,-0.7284202575683594
1707603334210037200,4.962037353515625,-6.412933349609375,9.39709186553955,-0.0717461109161377
1707603334228931000,4.98093115234375,-9.500434875488281,9.785205841064453,0.8555052280426025
1707603334247824600,4.99982470703125,-11.00349235534668,9.093916893005371,0.8892285823822021
1707603334266718200,5.01871826171875,-11.817707061767578,6.692892074584961,0.45471954345703125
1707603334285612000,5.037612060546875,-10.49181079864502,3.934793472290039,-1.3237998485565186
1707603334304505600,5.056505615234375,-7.520045280456543,0.7081546783447266,-2.109112501144409
1707603334323399400,5.0753994140625,-4.874483108520508,-3.3764915466308594,-1.2920873165130615
1707603334342293000,5.09429296875,-2.0900895595550537,-6.918756484985352,2.630462646484375
1707603334361186600,5.1131865234375,1.934233546257019,-10.137921333312988,7.098489761352539
1707603334380080400,5.132080322265625,3.1190009117126465,-11.0712251663208,7.966838836669922
1707603334398974000,5.150973876953125,6.630343437194824,-9.777838706970215,3.261531352996826
1707603334417867800,5.16986767578125,13.77573013305664,-7.845698833465576,-3.838136672973633
1707603334436761300,5.18876123046875,12.27144718170166,-6.829537391662598,-4.396084308624268
1707603334455655000,5.207655029296875,3.4411959648132324,-6.660044193267822,-2.1660547256469727
1707603334474548700,5.226548828125,-2.903130054473877,-3.0620980262756348,2.52632999420166
1707603334493442300,5.2454423828125,-7.5343499183654785,2.1758909225463867,2.870450973510742
1707603334512336000,5.2643359375,-5.29385232925415,8.143291473388672,-1.3711175918579102
1707603334531229700,5.283229736328125,-5.101552486419678,11.360044479370117,-4.004030227661133
1707603334550123500,5.30212353515625,-4.160696506500244,12.054140090942383,-2.3949713706970215
1707603334569017000,5.32101708984375,-3.855558156967163,10.872557640075684,-0.8933305740356445
1707603334587910700,5.33991064453125,-3.083648204803467,8.105079650878906,0.5586633682250977
1707603334606804200,5.35880419921875,-1.271486520767212,4.151261806488037,1.7911248207092285
1707603334625698000,5.377697998046875,0.5805525779724121,0.22168588638305664,2.682211399078369
1707603334644591600,5.396591552734375,1.33417809009552,-3.350844383239746,2.8061611652374268
1707603334663485400,5.4154853515625,1.3281869888305664,-6.876047611236572,2.787555694580078
1707603334682379000,5.43437890625,2.213418483734131,-9.30362319946289,2.2724380493164062
1707603334701272600,5.4532724609375,3.299295425415039,-9.919085502624512,1.5373449325561523
1707603334720166400,5.47216650390625,3.152883529663086,-9.986988067626953,0.5659809112548828
1707603334739060000,5.49106005859375,1.104312777519226,-9.895636558532715,-0.4598217010498047
1707603334757953800,5.509953857421875,-1.3853416442871094,-8.655957221984863,-2.0054798126220703
1707603334776847400,5.528847412109375,-3.9022388458251953,-5.757368087768555,-3.455735206604004
1707603334795741200,5.5477412109375,-5.916114330291748,-1.0633413791656494,-4.8237714767456055
1707603334814634800,5.566634765625,-6.616934299468994,3.244688034057617,-5.371451377868652
1707603334833528300,5.5855283203125,-5.883474826812744,7.392679214477539,-4.101006507873535
1707603334852422100,5.604422119140625,-3.9207565784454346,10.684518814086914,-2.8820419311523438
1707603334871315700,5.623315673828125,-2.9935436248779297,12.650285720825195,-0.46076202392578125
1707603334890209500,5.64220947265625,-2.429049491882324,11.93393325805664,1.8342266082763672
1707603334909103000,5.66110302734375,-1.5147086381912231,8.983179092407227,2.9828457832336426
1707603334927996700,5.67999658203125,-0.2718082070350647,4.206395626068115,3.871460437774658
1707603334946890500,5.698890380859375,1.2366880178451538,-0.5527229309082031,4.706462860107422
1707603334965784000,5.7177841796875,2.5363824367523193,-4.506741046905518,5.192298889160156
1707603334984678000,5.736677978515625,3.0302581787109375,-7.644479751586914,3.9675540924072266
1707603335003571500,5.755571533203125,3.2708301544189453,-9.703719139099121,1.9216070175170898
1707603335022465000,5.774465087890625,2.8198959827423096,-10.789056777954102,0.2029590606689453
1707603335041358800,5.79335888671875,1.8071147203445435,-11.928598403930664,-2.2645397186279297
1707603335060252400,5.81225244140625,0.7364446520805359,-10.993476867675781,-2.6110382080078125
1707603335079146000,5.83114599609375,-0.36687299609184265,-9.66116714477539,-1.1543998718261719
1707603335098039800,5.850039794921875,-1.6007856130599976,-6.615627288818359,-1.8840456008911133
1707603335116933400,5.868933349609375,-2.7484211921691895,-1.954813003540039,-3.20662784576416
1707603335135827200,5.8878271484375,-3.9539666175842285,4.471248626708984,-4.751779556274414
1707603335154720800,5.906720703125,-5.688838958740234,9.779415130615234,-4.068741798400879
1707603335173614600,5.925614501953125,-7.956679344177246,14.12221622467041,-1.5419330596923828
1707603335192508200,5.944508056640625,-9.413293838500977,17.347789764404297,1.7830486297607422
1707603335211401700,5.963401611328125,-9.516744613647461,15.737585067749023,3.7040977478027344
1707603335230295600,5.982295654296875,-8.278051376342773,10.027091026306152,2.9190754890441895
1707603335268083000,6.0200830078125,-3.520686626434326,-2.3714890480041504,0.5442047119140625
1707603335286976500,6.0389765625,-2.047060966491699,-7.877269744873047,-0.06650495529174805
1707603335305870000,6.0578701171875,-0.04775655269622803,-12.171600341796875,0.022858619689941406
1707603335324764000,6.076763916015625,2.352001190185547,-14.2762451171875,0.36806583404541016
1707603335343657500,6.095657470703125,4.584589004516602,-13.945886611938477,0.5269784927368164
1707603335362551300,6.11455126953125,6.614553928375244,-12.352753639221191,0.7483048439025879
1707603335381444900,6.13344482421875,7.194317817687988,-10.465827941894531,0.4804515838623047
1707603335400338700,6.152338623046875,3.7459349632263184,-8.622827529907227,-1.8459553718566895
1707603335419232300,6.171232177734375,-0.4901675581932068,-3.773170232772827,-5.028875350952148
1707603335438125800,6.190125732421875,-4.075435638427734,3.007833957672119,-8.304323196411133
1707603335457019600,6.20901953125,-9.974617004394531,7.865092754364014,-8.229239463806152
1707603335475913200,6.227913330078125,-13.687053680419922,11.623262405395508,-4.91844367980957
1707603335494807000,6.24680712890625,-13.897397994995117,13.04928970336914,-1.102717399597168
1707603335513700600,6.26570068359375,-11.366384506225586,10.553592681884766,1.461164951324463
1707603335532594400,6.284594482421875,-7.801041603088379,4.923818588256836,1.5565142631530762
1707603335551488000,6.303488037109375,-5.115254878997803,-2.4487714767456055,0.31182336807250977
1707603335570381600,6.322381591796875,-2.6093883514404297,-9.931777954101562,-0.720818042755127
1707603335589275400,6.341275390625,0.8774433135986328,-15.538103103637695,-0.22443294525146484
1707603335608169000,6.3601689453125,4.65608024597168,-17.42117691040039,1.020622730255127
1707603335627062800,6.379062744140625,10.60534381866455,-14.545228004455566,1.525289535522461
1707603335645956400,6.397956298828125,15.845073699951172,-10.316722869873047,1.3673501014709473
1707603335664850200,6.41685009765625,12.760934829711914,-8.230990409851074,1.2899656295776367
1707603335683743700,6.43574365234375,2.1343114376068115,-7.488762378692627,0.8304042816162109
1707603335702637300,6.45463720703125,-4.766613960266113,-4.8706865310668945,1.4958417415618896
1707603335721531100,6.47353125,-6.784775733947754,0.22443199157714844,0.7467312812805176
1707603335740424700,6.4924248046875,-7.063559532165527,6.017653465270996,-0.2551138401031494
1707603335759318300,6.511318359375,-7.3245439529418945,10.90341854095459,-1.1167287826538086
1707603335778212000,6.530212158203125,-8.72117805480957,13.682989120483398,-3.734762191772461
1707603335797105700,6.549105712890625,-10.92641544342041,12.585349082946777,-5.3896284103393555
1707603335815999500,6.56799951171875,-12.059148788452148,7.983953475952148,-5.014171600341797
1707603335834893300,6.586893310546875,-11.002037048339844,2.422186851501465,-2.910778760910034
1707603335853787000,6.605786865234375,-7.329812049865723,-2.4794254302978516,-1.230151653289795
1707603335872680400,6.624680419921875,-3.024020195007324,-7.190858364105225,-0.46154141426086426
1707603335891574000,6.643573974609375,2.0193123817443848,-11.381482124328613,1.3077843189239502
1707603335910467800,6.6624677734375,8.373025894165039,-12.799673080444336,2.4266045093536377
1707603335929361400,6.681361328125,12.125988960266113,-12.527565956115723,2.6516666412353516
1707603335948255200,6.700255126953125,12.304407119750977,-12.342598915100098,0.02841663360595703
1707603335967148800,6.719148681640625,8.475951194763184,-10.398380279541016,-4.066959857940674
1707603335986042600,6.738042724609375,3.6796865463256836,-8.531757354736328,-4.009341239929199
1707603336004936200,6.756936279296875,0.619483470916748,-5.33029842376709,0.8957164287567139
1707603336023830000,6.775830078125,-1.429299235343933,0.1421041488647461,5.743054389953613
1707603336042723600,6.7947236328125,-3.667757987976074,4.5517425537109375,6.271469593048096
1707603336061617200,6.8136171875,-5.9556660652160645,7.871129035949707,2.2066619396209717
1707603336080511000,6.832510986328125,-9.168573379516602,10.545165061950684,-1.8874073028564453
1707603336099404500,6.851404541015625,-12.018235206604004,10.252217292785645,-3.034334421157837
1707603336118298400,6.87029833984375,-13.078961372375488,7.480645179748535,-2.729426860809326
1707603336137192000,6.88919189453125,-12.55475902557373,2.456512451171875,-0.542870044708252
1707603336156085800,6.908085693359375,-8.559398651123047,-2.9780683517456055,-0.21563935279846191
1707603336174979300,6.926979248046875,-2.514211893081665,-7.289890289306641,-0.1694786548614502
1707603336193873200,6.945873046875,2.447183847427368,-10.41484260559082,1.117661476135254
1707603336212766700,6.9647666015625,5.7359466552734375,-12.923454284667969,1.126988172531128
1707603336231660300,6.983660400390625,8.477195739746094,-13.33905029296875,-0.5635232925415039
1707603336250554000,7.00255419921875,10.840274810791016,-12.057064056396484,-2.6055195331573486
1707603336269447700,7.02144775390625,12.468976974487305,-9.140356063842773,-2.8127939701080322
1707603336288341500,7.040341552734375,9.925708770751953,-6.305142402648926,-1.2162699699401855
1707603336307235000,7.059235107421875,2.305375337600708,-3.5156497955322266,0.9760000705718994
1707603336326129000,7.07812890625,-4.717899799346924,2.0418596267700195,3.279658794403076
1707603336345022500,7.0970224609375,-9.936532020568848,8.13684368133545,3.1228034496307373
1707603336363916300,7.115916259765625,-12.54210090637207,13.415203094482422,0.9032728672027588
1707603336382809900,7.134809814453125,-13.986496925354004,14.2300386428833,-2.3435988426208496
1707603336401703400,7.153703369140625,-13.638599395751953,10.492003440856934,-4.256824970245361
1707603336420597200,7.17259716796875,-10.626379013061523,4.918160438537598,-3.002453327178955
1707603336439490800,7.19149072265625,-6.93873405456543,-0.7941641807556152,-1.4200479984283447
1707603336458384600,7.210384521484375,-3.441383123397827,-5.898516654968262,-0.19543814659118652
1707603336477278200,7.2292783203125,0.20834636688232422,-10.00992202758789,1.1945843696594238
1707603336496172000,7.248172119140625,4.895232677459717,-12.504134178161621,2.3054680824279785
1707603336515065600,7.267065673828125,9.33511734008789,-13.24888801574707,1.0442454814910889
1707603336533959400,7.28595947265625,11.919443130493164,-13.215429306030273,-1.0798752307891846
1707603336552853000,7.30485302734375,12.16300106048584,-13.23541259765625,-2.067211866378784
1707603336571746600,7.32374658203125,6.634559631347656,-12.708915710449219,-0.4547145366668701
1707603336590640400,7.342640380859375,0.7484240531921387,-9.082443237304688,0.258465051651001
1707603336609534000,7.361533935546875,-3.31907057762146,-3.190720558166504,0.9040791988372803
1707603336628427800,7.380427734375,-6.526523590087891,4.025920867919922,1.650416374206543
1707603336647321300,7.3993212890625,-9.844015121459961,10.836554527282715,1.1628012657165527
1707603336666215200,7.418215087890625,-11.912257194519043,14.92593765258789,-0.9607052803039551
1707603336685108700,7.437108642578125,-12.788643836975098,14.454235076904297,-3.5068559646606445
1707603336704002600,7.45600244140625,-13.422332763671875,10.123577117919922,-4.093910217285156
1707603336722896100,7.474896240234375,-12.788161277770996,4.26983642578125,-3.5137648582458496
1707603336741790000,7.4937900390625,-10.202704429626465,-0.8207502365112305,-2.311046838760376
1707603336760683500,7.51268359375,-6.992961406707764,-5.281216144561768,-2.2963807582855225
1707603336779577000,7.5315771484375,-2.7630934715270996,-9.224237442016602,-3.278898000717163
1707603336798471000,7.550470947265625,1.9019575119018555,-11.976337432861328,-4.749353885650635
1707603336817364500,7.569364501953125,6.551791191101074,-12.964273452758789,-4.064125061035156
1707603336836258300,7.58825830078125,10.4480562210083,-12.337759971618652,-2.0498123168945312
1707603336855151900,7.60715185546875,12.119016647338867,-10.722740173339844,0.09656190872192383
1707603336874045700,7.626045654296875,9.220672607421875,-9.227034568786621,0.03423023223876953
1707603336892939300,7.644939208984375,4.553891181945801,-6.886463642120361,2.415682077407837
1707603336911833000,7.6638330078125,1.0391993522644043,-1.6523723602294922,5.167024612426758
1707603336930726700,7.6827265625,-2.6662840843200684,4.278481483459473,5.265757083892822
1707603336949620500,7.701620361328125,-5.8974480628967285,9.942421913146973,3.035968780517578
1707603336968514000,7.72051416015625,-9.935567855834961,12.749176025390625,-0.3742663860321045
1707603336987407600,7.73940771484375,-12.993053436279297,11.38329029083252,-2.147670269012451
1707603337006301400,7.758301513671875,-13.239810943603516,7.102099418640137,-1.846226453781128
1707603337025195000,7.777195068359375,-11.147850036621094,1.788588523864746,0.17840981483459473
1707603337044088800,7.7960888671875,-6.897552013397217,-3.3807406425476074,0.3646101951599121
1707603337062982400,7.814982421875,-0.9197375774383545,-7.095261573791504,-1.7096788883209229
1707603337081876200,7.833876220703125,3.6333186626434326,-9.336356163024902,-1.7655284404754639
1707603337100769800,7.852769775390625,6.397644519805908,-10.780930519104004,-1.7962605953216553
1707603337119663600,7.87166357421875,8.442427635192871,-11.059274673461914,-3.0560219287872314
1707603337138557200,7.89055712890625,9.54448127746582,-10.555081367492676,-3.6233162879943848
1707603337157451000,7.909450927734375,8.53366470336914,-9.600722312927246,-2.9583511352539062
1707603337176344600,7.928344482421875,4.341916561126709,-8.094399452209473,0.5087270140647888
1707603337195238400,7.94723828125,0.07209146022796631,-4.209585666656494,3.104543685913086
1707603337214132000,7.966132080078125,-2.974360704421997,0.38310909271240234,3.4717957973480225
1707603337233025800,7.98502587890625,-5.223609924316406,5.287947654724121,1.8887743949890137
1707603337270813000,8.02281298828125,-7.029292106628418,12.764404296875,0.717657208442688
1707603337289706800,8.041706787109375,-9.402405738830566,11.490832328796387,0.3552154302597046
1707603337308600300,8.060600341796874,-10.221771240234375,8.03880786895752,1.4042366743087769
1707603337327494100,8.079494140625,-9.04540729522705,3.751580238342285,2.833618640899658
1707603337346387700,8.0983876953125,-6.253766059875488,-0.5906772613525391,1.9223207235336304
1707603337365281500,8.117281494140625,-3.030747890472412,-4.454590797424316,-0.09015107154846191
1707603337384175000,8.136175048828125,0.33088207244873047,-7.763843059539795,-0.6176145076751709
1707603337403069000,8.15506884765625,2.1558613777160645,-10.595474243164062,0.3964226245880127
1707603337421962500,8.17396240234375,4.807498931884766,-12.289953231811523,0.8336191177368164
1707603337440856300,8.192856201171875,9.105981826782227,-11.825309753417969,-0.935150146484375
1707603337459750000,8.21175,11.659342765808105,-10.393291473388672,-3.3958446979522705
1707603337478643700,8.230643798828124,9.580751419067383,-9.81352710723877,-1.5154523849487305
1707603337497537300,8.249537353515626,4.996830940246582,-7.669778823852539,2.695396900177002
1707603337516431000,8.26843115234375,-1.3184397220611572,-1.7920727729797363,4.764923095703125
1707603337535324700,8.28732470703125,-9.183931350708008,4.804166793823242,3.7683942317962646
1707603337554218500,8.306218505859375,-13.410916328430176,11.107826232910156,-0.5715279579162598
1707603337573112000,8.325112060546875,-14.499213218688965,14.948187828063965,-4.921350955963135
1707603337592005600,8.344005615234375,-14.258171081542969,14.009881973266602,-6.536680698394775
1707603337610899500,8.3628994140625,-12.70382308959961,9.096376419067383,-5.792992115020752
1707603337629793000,8.38179296875,-10.374496459960938,2.270880699157715,-3.822037696838379
1707603337648686800,8.400686767578126,-7.573100566864014,-3.8592677116394043,-2.0663106441497803
1707603337667580400,8.419580322265626,-4.652647018432617,-8.647255897521973,-1.2938623428344727
1707603337686474200,8.43847412109375,-0.1923360824584961,-11.728964805603027,-0.9265329837799072
1707603337705367800,8.457367919921875,4.086648941040039,-12.729057312011719,1.1686360836029053
1707603337724261600,8.47626171875,8.087967872619629,-11.936036109924316,1.0288419723510742
1707603337743155200,8.4951552734375,10.583386421203613,-11.185397148132324,-2.918635845184326
1707603337762049000,8.514049072265625,9.727743148803711,-10.502290725708008,-4.742232799530029
1707603337780942600,8.532942626953124,4.374336242675781,-10.078956604003906,-4.888755798339844
1707603337799836400,8.55183642578125,-0.7031242847442627,-7.333465099334717,-3.302928924560547
1707603337818730000,8.57072998046875,-2.7931106090545654,-2.9437637329101562,0.15377086400985718
1707603337837623800,8.589623779296875,-3.375546455383301,1.9247560501098633,4.542048454284668
1707603337856517400,8.608517333984375,-2.702688217163086,6.115082740783691,10.267034530639648
1707603337875411200,8.6274111328125,-3.076920509338379,9.847801208496094,12.376325607299805
1707603337894304800,8.6463046875,-5.529407501220703,10.614411354064941,8.602149963378906
1707603337913198600,8.665198486328125,-8.267667770385742,8.060551643371582,3.9462640285491943
1707603337932092200,8.684092041015624,-8.065985679626465,4.670281410217285,-1.3891401290893555
1707603337950986000,8.702986083984374,-3.9492545127868652,1.5096654891967773,-5.060734748840332
1707603337969879600,8.721879638671876,0.4184443950653076,-1.2374591827392578,-7.459795951843262
1707603337988773400,8.7407734375,3.303840160369873,-3.555914878845215,-5.5991926193237305
1707603338007667000,8.7596669921875,4.40824031829834,-5.795804023742676,-2.010317325592041
1707603338026560800,8.778560791015625,3.0196447372436523,-6.97750186920166,-2.3473002910614014
1707603338045454300,8.797454345703125,0.1856827735900879,-5.878277778625488,-5.87437105178833
1707603338064348000,8.816347900390625,0.6589841842651367,-6.360487461090088,-6.291925430297852
1707603338083241700,8.83524169921875,1.9281306266784668,-5.860040187835693,-6.2621331214904785
1707603338102135300,8.85413525390625,1.535189151763916,-5.5720930099487305,-4.683973789215088
1707603338121029000,8.873029052734376,2.210594415664673,-4.159128665924072,-0.6724257469177246
1707603338139922700,8.891922607421876,4.224900245666504,-0.6328177452087402,5.437385082244873
1707603338158816500,8.91081640625,3.023747682571411,3.2640976905822754,10.142141342163086
1707603338177710000,8.9297099609375,-1.7291138172149658,5.397231101989746,10.058919906616211
1707603338196604000,8.94860400390625,-4.512384414672852,6.121096134185791,7.266810417175293
1707603338215497500,8.96749755859375,-5.319459915161133,6.128775119781494,6.810493469238281
1707603338234391300,8.986391357421875,-6.058203220367432,4.459962368011475,6.195230484008789
1707603338253284900,9.005284912109374,-6.017336845397949,1.5124096870422363,5.904852867126465
1707603338272178700,9.0241787109375,-4.906759262084961,-1.8404412269592285,4.608306407928467
1707603338291072300,9.043072265625,-2.4058518409729004,-4.441429138183594,0.5448975563049316
1707603338309966000,9.061966064453125,-0.0034677982330322266,-4.562191963195801,-3.7396984100341797
1707603338328859600,9.080859619140625,2.4447593688964844,-5.806761741638184,-6.889408111572266
1707603338347753500,9.09975341796875,3.638533115386963,-6.917433738708496,-8.157123565673828
1707603338366647000,9.11864697265625,3.759479284286499,-7.803365230560303,-7.590442657470703
1707603338385540900,9.137540771484375,2.587477922439575,-8.581268310546875,-6.299037933349609
1707603338404434400,9.156434326171874,1.3035869598388672,-8.592376708984375,-4.301478385925293
1707603338423328300,9.175328369140624,2.01737904548645,-7.156140327453613,-1.3462862968444824
1707603338442221800,9.194221923828126,4.908310413360596,-3.404715061187744,4.653542995452881
1707603338461115600,9.21311572265625,5.756437301635742,2.8060479164123535,11.801898956298828
1707603338480009200,9.23200927734375,-0.4985070824623108,6.487598419189453,12.8002290725708
1707603338498903000,9.250903076171875,-6.447888374328613,7.330564498901367,10.49901008605957
1707603338517796600,9.269796630859375,-8.807063102722168,8.000349044799805,8.6300048828125
1707603338536690400,9.2886904296875,-8.6412992477417,5.985918045043945,7.9730095863342285
1707603338555584000,9.307583984375,-7.0445733070373535,2.8340258598327637,5.807798862457275
1707603338574477800,9.326477783203124,-6.171428203582764,-0.7191429138183594,2.294875144958496
1707603338593371400,9.345371337890626,-5.125308990478516,-3.8380885124206543,-2.1063709259033203
1707603338612265200,9.36426513671875,-2.82578444480896,-5.477382659912109,-6.245730400085449
1707603338631159000,9.383158935546875,-0.6522707939147949,-6.701678276062012,-8.509586334228516
1707603338650052600,9.402052490234375,2.788370370864868,-8.997790336608887,-9.527575492858887
1707603338668946400,9.420946533203125,6.8608717918396,-9.89126968383789,-9.616403579711914
1707603338687840000,9.439840087890625,7.884380340576172,-10.159542083740234,-8.564666748046875
1707603338706733800,9.45873388671875,6.233235836029053,-10.465027809143066,-7.036281585693359
1707603338725627400,9.47762744140625,4.4103803634643555,-8.430325508117676,-2.3988938331604004
1707603338744521200,9.496521240234374,3.872929096221924,-3.7821543216705322,4.508482456207275
1707603338763414800,9.515414794921876,0.11720192432403564,2.262967586517334,10.698200225830078
1707603338782308600,9.53430859375,-4.1844563484191895,7.05460262298584,13.078473091125488
1707603338801202200,9.5532021484375,-7.742555141448975,8.709249496459961,10.725914001464844
1707603338820096000,9.572095947265625,-8.061655044555664,9.136051177978516,7.99619722366333
1707603338838989600,9.590989501953125,-7.438554286956787,7.142274379730225,5.832218647003174
1707603338857883400,9.60988330078125,-6.50804328918457,3.489811897277832,4.997105598449707
1707603338876777000,9.62877685546875,-5.4225969314575195,-0.3804163932800293,3.663084030151367
1707603338895670800,9.6476708984375,-4.008092880249023,-3.8184266090393066,0.9409875869750977
1707603338914564400,9.666564453125,-2.5463716983795166,-6.025478839874268,-2.522728681564331
1707603338933458200,9.685458251953126,-0.9907691478729248,-7.361948013305664,-5.403324127197266
1707603338952351700,9.704351806640625,1.8530173301696777,-8.565197944641113,-7.727445125579834
1707603338971245600,9.72324560546875,5.252581596374512,-7.670100688934326,-8.596305847167969
1707603338990139100,9.74213916015625,6.819676399230957,-6.81428337097168,-9.082793235778809
1707603339009033000,9.761032958984375,5.187512397766113,-6.954787731170654,-8.448858261108398
1707603339027926500,9.779926513671874,2.1226937770843506,-6.61153507232666,-5.292120933532715
1707603339046820400,9.7988203125,1.5061795711517334,-3.1537294387817383,1.344484806060791
1707603339065714000,9.8177138671875,1.7400678396224976,2.0826454162597656,8.291019439697266
1707603339084607700,9.836607666015626,-0.26141858100891113,6.776403903961182,11.735647201538086
1707603339103501300,9.855501220703125,-4.453402042388916,8.295141220092773,11.850008010864258
1707603339122395100,9.87439501953125,-6.908059120178223,8.682048797607422,11.072139739990234
1707603339141288700,9.893288818359375,-7.79738187789917,6.967438697814941,8.87260627746582
1707603339160182500,9.9121826171875,-7.202167987823486,2.884108543395996,7.300544738769531
1707603339179076000,9.931076171875,-5.860261917114258,-1.0733842849731445,5.315051078796387
1707603339197970000,9.949969970703124,-4.746742248535156,-4.744644641876221,1.3272290229797363
1707603339216863700,9.96886376953125,-3.726430892944336,-7.578880786895752,-4.219410419464111
1707603339235757300,9.98775732421875,-1.0940358638763428,-8.486567497253418,-9.407892227172852
1707603339254651100,10.006651123046876,2.242544412612915,-8.718388557434082,-13.193425178527832
1707603339273544700,10.025544677734375,6.340869426727295,-8.115534782409668,-12.648099899291992
1707603339292438500,10.0444384765625,7.749583721160889,-7.627174377441406,-9.772655487060547
1707603339311332000,10.06333203125,5.257408142089844,-8.435850143432617,-7.484469413757324
1707603339330226000,10.082225830078125,1.8888506889343262,-8.367326736450195,-3.8607399463653564
1707603339349119500,10.101119384765624,1.51289963722229,-5.285709381103516,2.284684181213379
1707603339368013300,10.120013427734374,2.313960313796997,-0.26688194274902344,9.673009872436523
1707603339386907100,10.1389072265625,0.6969101428985596,3.277749538421631,13.214585304260254
1707603339405800700,10.15780078125,-1.5921989679336548,4.641428470611572,11.6851224899292
1707603339424694500,10.176694580078125,-2.5161941051483154,5.7652788162231445,10.36193561553955
1707603339443588000,10.195588134765625,-3.4345624446868896,6.0605645179748535,10.463435173034668
1707603339462482000,10.21448193359375,-4.805881977081299,4.674056053161621,10.544404029846191
1707603339481375500,10.23337548828125,-5.973787784576416,1.5111002922058105,9.298225402832031
1707603339500269300,10.252269287109375,-7.068045139312744,-2.787067413330078,5.740013122558594
1707603339519163000,10.271162841796874,-6.740143775939941,-7.279118537902832,0.9025778770446777
1707603339538056700,10.290056640625,-3.1068954467773438,-9.312496185302734,-4.4732666015625
1707603339556950300,10.3089501953125,0.6954517364501953,-8.718173027038574,-8.152238845825195
1707603339575844000,10.327843994140625,4.79486608505249,-8.07027816772461,-10.1565523147583
1707603339594737700,10.346737548828125,8.89501953125,-7.25964879989624,-10.487783432006836
1707603339613631500,10.365631591796875,9.20024585723877,-6.630448341369629,-9.188132286071777
1707603339632525000,10.384525146484375,4.73375129699707,-8.038372993469238,-7.798979759216309
1707603339651419000,10.4034189453125,1.090122938156128,-8.572452545166016,-6.22853946685791
1707603339670312400,10.4223125,-0.7397284507751465,-5.816762924194336,-1.3673028945922852
1707603339689206300,10.441206298828124,-0.2749694585800171,-0.20602750778198242,6.115078926086426
1707603339708099800,10.460099853515626,-0.6539262533187866,5.459423065185547,12.2943754196167
1707603339726993700,10.47899365234375,-2.517089366912842,7.924000263214111,13.000083923339844
1707603339745887200,10.49788720703125,-4.621781349182129,8.126882553100586,11.652850151062012
1707603339764781000,10.516781005859375,-5.732211589813232,6.8997650146484375,10.48298454284668
1707603339783675000,10.5356748046875,-6.269019603729248,3.490781307220459,7.619011402130127
1707603339802568400,10.554568359375,-6.310132026672363,-0.4898829460144043,4.174540996551514
1707603339821462300,10.573462158203125,-4.956747055053711,-3.604387044906616,-0.8083405494689941
1707603339840355800,10.59235595703125,-2.3185510635375977,-4.625563621520996,-5.767899990081787
1707603339859249700,10.611249755859374,0.45537614822387695,-5.369850158691406,-9.215723991394043
1707603339878143500,10.6301435546875,2.019218921661377,-5.836480140686035,-9.869036674499512
1707603339897037000,10.649037109375,2.5745556354522705,-6.008999347686768,-8.345019340515137
1707603339915931000,10.667930908203125,2.8915388584136963,-6.831410884857178,-7.944422721862793
1707603339934824400,10.686824462890625,2.340290069580078,-6.742929458618164,-6.851925849914551
1707603339953718300,10.70571826171875,1.8749306201934814,-5.982874870300293,-4.487433433532715
1707603339972611800,10.72461181640625,2.457996368408203,-3.659114122390747,0.09027957916259766
1707603339991505700,10.743505615234374,3.8137400150299072,0.6559092998504639,8.226272583007812
1707603340010399200,10.762399169921874,2.7213568687438965,4.084935188293457,14.683241844177246
1707603340029293000,10.78129296875,-1.0883945226669312,5.571793556213379,14.838170051574707
1707603340048186600,10.8001865234375,-4.749578475952148,5.205121040344238,11.787257194519043
1707603340067080400,10.81908056640625,-5.454935550689697,2.9964075088500977,10.765287399291992
1707603340085974000,10.83797412109375,-3.615813732147217,0.5660052299499512,9.486949920654297
1707603340104867800,10.856867919921875,-2.426380157470703,-1.2503132820129395,6.575600624084473
1707603340123761400,10.875761474609375,-2.691664457321167,-3.258157730102539,2.1166863441467285
1707603340142655200,10.8946552734375,-3.4233694076538086,-6.183406352996826,-1.4112329483032227
1707603340161549000,10.913549072265624,-2.291494369506836,-7.939874649047852,-4.961869239807129
1707603340180442600,10.932442626953126,-0.06362700462341309,-7.701168060302734,-7.663465976715088
1707603340199336400,10.95133642578125,2.6215105056762695,-6.424238204956055,-7.816556453704834
1707603340218230000,10.97022998046875,5.020345211029053,-5.906253337860107,-5.612339973449707
1707603340237123800,10.989123779296875,6.256130218505859,-6.109186172485352,-2.9829201698303223
1707603340256017700,11.008017578125,5.31427526473999,-5.851768970489502,-1.9759211540222168
1707603340274911200,11.0269111328125,3.486523151397705,-3.906367540359497,-1.2175254821777344
1707603340293805000,11.04580517578125,1.9490700960159302,-1.0768580436706543,1.0991950035095215
1707603340312698600,11.06469873046875,0.17199325561523438,1.816934585571289,3.111823558807373
1707603340331592400,11.083592529296874,-1.8800487518310547,5.271246910095215,3.7295494079589844
1707603340350486000,11.102486083984376,-3.9805545806884766,8.096318244934082,3.811829090118408
1707603340369379800,11.1213798828125,-5.541916847229004,9.098357200622559,3.3928170204162598
1707603340388273400,11.1402734375,-5.958838939666748,7.612030029296875,2.747424840927124
1707603340407167200,11.159167236328125,-6.319427490234375,4.255199432373047,2.2098186016082764
1707603340426060800,11.178060791015625,-6.0169548988342285,0.3899707794189453,1.6534905433654785
1707603340444954600,11.19695458984375,-4.113775730133057,-3.452237606048584,0.13625597953796387
1707603340463848400,11.215848388671875,-1.1132041215896606,-6.881955623626709,-2.6074914932250977
1707603340482742000,11.234741943359374,2.1369423866271973,-8.406634330749512,-5.57301664352417
1707603340501635800,11.2536357421875,5.4359869956970215,-8.846872329711914,-6.3696770668029785
1707603340520529700,11.27252978515625,8.585381507873535,-9.131122589111328,-5.463785648345947
1707603340539423200,11.29142333984375,8.550464630126953,-9.764951705932617,-3.882157802581787
1707603340558317000,11.310317138671875,5.470386028289795,-9.784751892089844,-2.0147533416748047
1707603340577210600,11.329210693359375,4.107515335083008,-5.361162185668945,3.0420351028442383
1707603340596104400,11.3481044921875,1.963318109512329,1.6719341278076172,8.402751922607422
1707603340614998000,11.366998046875,-3.1673717498779297,6.663028717041016,8.264572143554688
1707603340633891800,11.385891845703124,-6.4601030349731445,9.403661727905273,4.784148693084717
1707603340652785400,11.404785400390624,-7.595355033874512,10.133950233459473,2.548208713531494
1707603340671679200,11.42367919921875,-8.327045440673828,7.998998641967773,1.2664790153503418
1707603340690572800,11.44257275390625,-8.215714454650879,5.093711853027344,0.647019624710083
1707603340709466600,11.461466552734375,-7.447514533996582,1.9055089950561523,1.0616486072540283
1707603340728360400,11.4803603515625,-5.735263347625732,-1.7775797843933105,1.2074031829833984
1707603340747254000,11.49925390625,-2.399273157119751,-4.82135009765625,-0.1554335355758667
1707603340766147800,11.51814794921875,0.44294774532318115,-6.669200897216797,-1.8497966527938843
1707603340785041400,11.53704150390625,3.3362817764282227,-8.012447357177734,-3.5398526191711426
1707603340803935200,11.555935302734374,6.017777442932129,-9.409780502319336,-4.9190497398376465
1707603340822828800,11.574828857421876,7.83607292175293,-9.77979850769043,-4.771459579467773
1707603340841722600,11.59372265625,7.753034591674805,-9.111698150634766,-2.9695260524749756
1707603340860616200,11.6126162109375,5.647514343261719,-6.488203048706055,0.028337955474853516
1707603340879510000,11.631510009765625,3.876584529876709,-1.8341617584228516,4.21229362487793
1707603340898403600,11.650403564453125,0.20779812335968018,2.604893684387207,6.51104736328125
1707603340917297400,11.66929736328125,-3.5389199256896973,6.153264045715332,6.290307998657227
1707603340936191200,11.688191162109375,-6.256826400756836,9.2606840133667,3.980009078979492
1707603340955084800,11.707084716796874,-7.858733177185059,9.664413452148438,1.343875765800476
1707603340973978600,11.725978515625,-8.809097290039062,7.770166397094727,-0.427640438079834
1707603340992872400,11.74487255859375,-7.168790340423584,2.6349306106567383,-0.28820905089378357
1707603341011766000,11.76376611328125,-4.134372711181641,-2.1196060180664062,0.1630009412765503
1707603341030659800,11.782659912109375,-1.353434681892395,-4.621906757354736,1.6185106039047241
1707603341049553400,11.801553466796875,1.8812601566314697,-6.596958637237549,2.067779541015625
1707603341068447200,11.820447265625,4.248422622680664,-7.776230812072754,0.05793642997741699
1707603341087340800,11.8393408203125,5.458115577697754,-8.334805488586426,-2.290087938308716
1707603341106234600,11.858234619140624,5.525700092315674,-8.46634292602539,-2.4073374271392822
1707603341125128200,11.877128173828124,5.391757488250732,-7.149043560028076,-0.3986319303512573
1707603341144022000,11.89602197265625,4.826996326446533,-5.106674671173096,1.0940642356872559
1707603341162915800,11.914915771484376,2.5749194622039795,-2.9147701263427734,0.4982365369796753
1707603341181809400,11.933809326171875,-0.15370965003967285,-0.4779214859008789,-0.9755675792694092
1707603341200703200,11.952703125,-2.736219882965088,3.1916542053222656,-1.4517712593078613
1707603341219597000,11.97159716796875,-4.966646194458008,7.413434028625488,-1.9208548069000244
1707603341238490600,11.99049072265625,-7.380034446716309,9.670042037963867,-2.169464588165283
1707603341257384400,12.009384521484375,-8.705100059509277,9.372550010681152,-1.340261459350586
1707603341276278000,12.028278076171874,-8.371232986450195,7.445273399353027,-0.20696115493774414
1707603341295171800,12.047171875,-6.313244342803955,3.965996742248535,1.5253791809082031
1707603341314065400,12.0660654296875,-3.6677229404449463,-0.1202993392944336,3.0212552547454834
1707603341332959200,12.084959228515626,-0.9837427139282227,-3.5293712615966797,3.3108177185058594
1707603341351852800,12.103852783203125,1.746076226234436,-6.004931449890137,2.248945713043213
1707603341370746600,12.12274658203125,3.681225299835205,-7.640198707580566,0.552940845489502
1707603341389640400,12.141640380859375,4.41201114654541,-8.713537216186523,-0.4678773880004883
1707603341408534000,12.160533935546875,4.960022926330566,-8.904098510742188,-1.0314507484436035
1707603341427427800,12.179427734375,5.181632995605469,-8.453603744506836,-1.3609910011291504
1707603341446321400,12.1983212890625,5.264613151550293,-7.326492786407471,-2.4417662620544434
1707603341465215200,12.21721533203125,3.928947687149048,-4.630941390991211,-3.6805758476257324
1707603341484108800,12.23610888671875,0.7237139344215393,-0.7490558624267578,-4.316854953765869
1707603341503002600,12.255002685546875,-3.3090920448303223,3.7754950523376465,-3.702420711517334
1707603341521896200,12.273896240234375,-7.1026530265808105,7.447910785675049,-2.362083911895752
1707603341540790000,12.2927900390625,-9.101638793945312,9.711526870727539,-0.8152542114257812
1707603341559683800,12.311683837890625,-8.425382614135742,9.49833869934082,1.1842155456542969
1707603341578577400,12.330577392578125,-5.913487911224365,7.182546615600586,2.560396194458008
1707603341597471200,12.34947119140625,-3.327310562133789,3.763850212097168,3.0281455516815186
1707603341616365000,12.368364990234374,-1.3422664403915405,0.058023929595947266,2.6871895790100098
1707603341635258600,12.387258544921876,0.3908018469810486,-3.726106643676758,2.267548084259033
1707603341654152400,12.40615234375,2.1808180809020996,-6.8081512451171875,1.8123326301574707
1707603341673046000,12.4250458984375,3.531754970550537,-8.672828674316406,0.8773107528686523
1707603341691939800,12.44393994140625,4.168639183044434,-9.305313110351562,0.1286482810974121
1707603341710833400,12.46283349609375,3.9287636280059814,-9.464800834655762,-0.7117090225219727
1707603341729727200,12.481727294921875,3.1700844764709473,-8.664514541625977,-1.9113330841064453
1707603341748621000,12.50062109375,3.5072312355041504,-7.359275817871094,-2.4121875762939453
1707603341767514600,12.5195146484375,2.372743606567383,-5.1478729248046875,-3.7258758544921875
1707603341786408400,12.538408447265626,-0.05771265923976898,-1.36912202835083,-4.425804138183594
1707603341805302000,12.557302001953126,-2.8664655685424805,4.307857036590576,-4.24392032623291
1707603341824195800,12.57619580078125,-6.798479080200195,9.14228343963623,-3.180943489074707
1707603341843089700,12.595089599609375,-10.417081832885742,11.316168785095215,-1.9441452026367188
1707603341861983200,12.613983154296875,-11.478097915649414,11.110279083251953,-0.2430896759033203
1707603341880877000,12.632876953125,-8.990915298461914,8.257705688476562,1.0111150741577148
1707603341899770600,12.6517705078125,-4.504575252532959,4.187600135803223,1.4685688018798828
1707603341918664400,12.67066455078125,-1.411407470703125,-0.11500358581542969,1.9782814979553223
1707603341937558300,12.689558349609374,0.47048085927963257,-3.9545345306396484,2.581040859222412
1707603341956451800,12.708451904296876,2.4075069427490234,-7.087634563446045,2.884734630584717
1707603341975345700,12.727345703125,4.517586708068848,-8.87425422668457,2.4142909049987793
1707603341994239200,12.7462392578125,5.695222854614258,-9.396427154541016,1.2385191917419434
1707603342013133000,12.765133056640625,6.072957992553711,-9.233433723449707,-0.015328407287597656
1707603342032026600,12.784026611328125,5.709447383880615,-8.858678817749023,-1.326246738433838
1707603342050920400,12.80292041015625,4.754742622375488,-7.6283416748046875,-2.2200169563293457
1707603342069814300,12.821814208984375,2.437337875366211,-5.108433723449707,-2.8934736251831055
1707603342088707800,12.840707763671874,-0.8349074721336365,-1.498826026916504,-2.5648036003112793
1707603342107601700,12.8596015625,-5.411317348480225,3.1709704399108887,-1.7403936386108398
1707603342126495500,12.87849560546875,-9.551448822021484,6.459373950958252,-1.205066204071045
1707603342145389000,12.89738916015625,-11.25292682647705,8.994406700134277,-1.6022124290466309
1707603342164283000,12.916282958984375,-10.324209213256836,10.034024238586426,-1.9641695022583008
1707603342183176400,12.935176513671875,-8.142742156982422,8.78835678100586,-1.4989476203918457
1707603342202070300,12.9540703125,-6.00831413269043,5.518575668334961,-0.6797647476196289
1707603342220963800,12.9729638671875,-3.9683852195739746,1.4896669387817383,0.09736347198486328
1707603342239857700,12.991857666015624,-2.4488141536712646,-3.0099563598632812,1.4688496589660645
1707603342258751500,13.01075146484375,-0.13280534744262695,-7.0512566566467285,2.9133410453796387
1707603342277645000,13.02964501953125,3.370727062225342,-9.443960189819336,3.750115394592285
1707603342296539000,13.048538818359376,6.031781196594238,-10.424032211303711,4.197920799255371
1707603342315432400,13.067432373046875,7.772102355957031,-10.785953521728516,3.5785470008850098
1707603342334326300,13.086326171875,8.506736755371094,-10.218708038330078,2.295978546142578
1707603342353219800,13.1052197265625,7.855503559112549,-9.154680252075195,1.150686264038086
1707603342372113700,13.12411376953125,5.082676410675049,-6.503708362579346,0.39617490768432617
1707603342391007500,13.143007568359375,1.1725125312805176,-1.2940306663513184,-2.6722631454467773
1707603342409901300,13.1619013671875,-4.87771463394165,4.603020668029785,-4.817672252655029
1707603342428795000,13.180794921875,-13.775198936462402,8.253094673156738,-4.927279472351074
1707603342447688700,13.199688720703126,-18.109163284301758,10.68913459777832,-4.278557777404785
1707603342466582300,13.218582275390625,-16.28117561340332,11.005681991577148,-4.387150287628174
1707603342485476000,13.23747607421875,-12.102534294128418,6.85831356048584,-3.881819248199463
1707603342504369700,13.25636962890625,-8.20378589630127,1.214818000793457,-2.649491786956787
1707603342523263500,13.275263427734375,-5.067838191986084,-4.473233222961426,-1.6294326782226562
1707603342542157300,13.2941572265625,-2.0946624279022217,-9.745657920837402,-0.5317120552062988
1707603342561051000,13.31305078125,1.4685924053192139,-13.055374145507812,0.6841473579406738
1707603342579944700,13.33194482421875,5.2647318840026855,-14.23660659790039,1.9613425731658936
1707603342598838300,13.35083837890625,10.274084091186523,-13.386653900146484,2.6250858306884766
1707603342617732000,13.369732177734376,12.859243392944336,-11.922889709472656,2.889374256134033
1707603342636625700,13.388625732421875,11.855546951293945,-11.901276588439941,2.5116186141967773
1707603342655519500,13.40751953125,6.360935211181641,-12.258870124816895,1.223257064819336
1707603342674413300,13.426413330078125,-0.05413162708282471,-10.310979843139648,-1.6195321083068848
1707603342693307100,13.44530712890625,-4.1685051918029785,-5.724365234375,-4.338634490966797
1707603342712200700,13.46420068359375,-7.810945510864258,0.4355807304382324,-5.402967929840088
1707603342731094500,13.483094482421874,-11.697980880737305,7.530920028686523,-6.3213958740234375
1707603342749988000,13.501988037109374,-14.851764678955078,12.612841606140137,-6.220853805541992
1707603342768882000,13.5208818359375,-15.562970161437988,13.401652336120605,-4.772876739501953
1707603342787775500,13.539775390625,-12.872074127197266,10.740020751953125,-3.197873115539551
1707603342806669300,13.55866943359375,-9.612199783325195,5.535539150238037,-1.5174918174743652
1707603342825563100,13.577563232421875,-6.45780086517334,-0.19366979598999023,-0.3428664207458496
1707603342844456700,13.596456787109375,-3.730311393737793,-5.342698097229004,0.61407470703125
1707603342863350500,13.6153505859375,-0.5691869258880615,-9.284284591674805,0.9256916046142578
1707603342882244400,13.634244384765625,2.8990776538848877,-11.535712242126465,0.7585110664367676
1707603342901138000,13.653137939453124,6.908563613891602,-11.786767959594727,1.074172019958496
1707603342920031700,13.67203173828125,10.271278381347656,-10.724027633666992,1.1805665493011475
1707603342938925300,13.69092529296875,10.253082275390625,-11.14852523803711,1.9783453941345215
1707603342957819100,13.709819091796875,6.694462299346924,-12.21485710144043,2.143221378326416
1707603342976713000,13.728712890625,2.171787738800049,-12.982059478759766,0.24616146087646484
1707603342995606500,13.7476064453125,-0.7546803951263428,-11.407773971557617,-3.3045496940612793
1707603343014500400,13.766500244140625,-2.9370298385620117,-6.769033908843994,-5.991724491119385
1707603343033394000,13.785393798828125,-5.91290283203125,0.5151705741882324,-6.103501319885254
1707603343052287700,13.804287841796874,-9.940356254577637,7.280250072479248,-4.277681350708008
1707603343071181600,13.823181640625,-13.732075691223145,13.000454902648926,-3.254861354827881
1707603343090075400,13.842075439453126,-15.193936347961426,15.050933837890625,-3.4106931686401367
1707603343108969000,13.860968994140626,-14.413290977478027,12.906394958496094,-4.029486179351807
1707603343127862800,13.87986279296875,-11.193856239318848,7.0308613777160645,-3.369070053100586
1707603343146756400,13.89875634765625,-7.596181392669678,0.3587503433227539,-1.9129443168640137
1707603343165650200,13.917650146484375,-4.612532615661621,-5.3164801597595215,-0.4425992965698242
1707603343184543700,13.936543701171875,-2.224989414215088,-9.431379318237305,0.11202526092529297
1707603343203437600,13.9554375,0.7373442649841309,-12.03980541229248,-0.11554574966430664
1707603343222331400,13.974331298828124,4.324491500854492,-12.409689903259277,-0.6476163864135742
1707603343241225000,13.993224853515626,8.234163284301758,-11.249419212341309,-1.1468849182128906
1707603343260118800,14.012118896484376,9.630327224731445,-10.47671127319336,-0.5165343284606934
1707603343279012400,14.031012451171875,6.663708686828613,-11.316947937011719,0.39171409606933594
1707603343297906200,14.04990625,2.5205845832824707,-11.835565567016602,-0.33016157150268555
1707603343316800000,14.068800048828125,-0.16576838493347168,-10.503839492797852,-2.2366113662719727
1707603343335693600,14.087693603515625,-1.7612029314041138,-6.3337860107421875,-4.179409503936768
1707603343354587400,14.10658740234375,-3.9796619415283203,-0.12359857559204102,-4.064122200012207
1707603343373481200,14.125481201171874,-7.335052967071533,7.04562520980835,-1.3123736381530762
1707603343392374800,14.144374755859374,-11.263120651245117,13.31121826171875,-0.502659797668457
1707603343411268600,14.1632685546875,-13.627908706665039,16.13347625732422,-2.434530735015869
1707603343430162200,14.182162109375,-13.839829444885254,14.134586334228516,-4.376678943634033
1707603343449056000,14.201055908203125,-11.007556915283203,8.573663711547852,-3.7033896446228027
1707603343467949800,14.21994970703125,-7.448264122009277,2.2428746223449707,-1.5899596214294434
1707603343486843400,14.238843505859375,-4.726670265197754,-3.2702465057373047,0.08333349227905273
1707603343505737200,14.2577373046875,-2.075521469116211,-7.1552629470825195,1.0352306365966797
1707603343524630800,14.276630859375,0.5304663181304932,-9.289724349975586,0.5419988632202148
1707603343543524600,14.295524658203124,2.8429558277130127,-10.18079948425293,-0.9319124221801758
1707603343562418400,14.31441845703125,4.431285858154297,-10.509197235107422,-2.1524181365966797
1707603343581312000,14.33331201171875,6.074239730834961,-10.502198219299316,-2.1866230964660645
1707603343600205800,14.352205810546875,7.0862956047058105,-10.1730375289917,-1.7162470817565918
1707603343619099600,14.371099609375,5.683655738830566,-9.322492599487305,0.2582259178161621
1707603343637993200,14.3899931640625,2.244678020477295,-6.297213554382324,0.5405826568603516
1707603343656887000,14.408886962890625,-1.41741943359375,-0.3802833557128906,-0.19425153732299805
1707603343675780600,14.427780517578125,-5.218006134033203,5.253657341003418,-0.988004207611084
1707603343694674400,14.44667431640625,-8.139145851135254,9.797640800476074,-2.6429643630981445
1707603343713568300,14.465568359375,-9.500815391540527,12.361382484436035,-3.2998733520507812
1707603343732461800,14.4844619140625,-10.280905723571777,11.950873374938965,-2.944629669189453
1707603343751355600,14.503355712890626,-11.483902931213379,8.194313049316406,-2.903987407684326
1707603343770249200,14.522249267578125,-10.499513626098633,2.276477813720703,-2.6560726165771484
1707603343789143000,14.54114306640625,-6.9958343505859375,-3.5524959564208984,-2.9908437728881836
1707603343808036900,14.560036865234375,-2.9597434997558594,-8.306934356689453,-3.628970146179199
1707603343826930700,14.5789306640625,1.4861164093017578,-10.596854209899902,-3.6361865997314453
1707603343845824300,14.59782421875,7.971305847167969,-10.668704986572266,-2.8278987407684326
1707603343864718000,14.616718017578124,11.758743286132812,-9.619529724121094,-1.2450288534164429
1707603343883611600,14.635611572265624,10.2914457321167,-10.0050687789917,-0.9452104568481445
1707603343902505500,14.65450537109375,7.106216907501221,-9.991192817687988,-0.06505995988845825
1707603343921399300,14.6733994140625,3.5989036560058594,-8.49030876159668,-1.6526706218719482
1707603343940292900,14.69229296875,0.3156864643096924,-6.1754302978515625,-3.509214401245117
1707603343959186700,14.711186767578125,-2.5563271045684814,-2.2602829933166504,-0.47724443674087524
1707603343978080300,14.730080322265625,-4.17678689956665,3.046224594116211,4.384860038757324
1707603343996974000,14.74897412109375,-5.709198474884033,7.145712852478027,5.61934232711792
1707603344015868000,14.767867919921875,-8.85671329498291,8.891785621643066,3.651392936706543
1707603344034761500,14.786761474609374,-10.80349063873291,8.142003059387207,1.016404628753662
1707603344053655300,14.8056552734375,-10.775713920593262,5.630562782287598,-0.505108654499054
1707603344072549000,14.824549072265626,-9.179906845092773,1.9177932739257812,-0.6272528171539307
1707603344091442700,14.843442626953125,-5.849156856536865,-2.229367256164551,-1.2936022281646729
1707603344110336500,14.86233642578125,-1.5804803371429443,-6.097243309020996,-3.2313570976257324
1707603344129230000,14.88122998046875,2.9868721961975098,-8.654019355773926,-4.559207439422607
1707603344148124000,14.9001240234375,8.243209838867188,-9.517386436462402,-3.7323286533355713
1707603344167017700,14.919017822265625,13.473211288452148,-8.854264259338379,-1.002421498298645
1707603344185911300,14.937911376953124,13.796366691589355,-7.864962577819824,0.7486345767974854
1707603344204805000,14.95680517578125,8.197418212890625,-7.914358139038086,-2.343355417251587
1707603344223698700,14.97569873046875,2.6457486152648926,-7.157780170440674,-5.374775409698486
1707603344242592500,14.994592529296876,-1.7672240734100342,-5.113324165344238,-2.512470245361328
1707603344261486300,15.013486328125,-5.476441383361816,-0.7405624389648438,4.264580249786377
1707603344280380200,15.032380126953125,-6.676327228546143,3.5647621154785156,7.8132219314575195
1707603344299273700,15.051273681640625,-8.070635795593262,5.4160356521606445,6.2049055099487305
1707603344318167600,15.07016748046875,-8.826022148132324,6.6597137451171875,2.234311819076538
1707603344337061000,15.08906103515625,-8.770188331604004,7.142129898071289,0.0027153193950653076
1707603344355955000,15.107954833984374,-8.116902351379395,6.187156677246094,-1.397679090499878
1707603344374848800,15.126848876953124,-7.276846885681152,3.266265869140625,-1.7041699886322021
1707603344393742300,15.145742431640626,-5.567819595336914,0.20190906524658203,-1.8670443296432495
1707603344412636200,15.16463623046875,-3.3754262924194336,-3.074446678161621,-2.5543124675750732
1707603344431529700,15.18352978515625,-0.07748258113861084,-5.262072563171387,-3.213196277618408
1707603344450423600,15.202423583984375,2.891592264175415,-7.944190502166748,-2.606860399246216
1707603344469317400,15.2213173828125,7.090415954589844,-9.403898239135742,-1.0981700420379639
1707603344488211200,15.240211181640625,11.610876083374023,-8.092361450195312,-1.564784288406372
1707603344507104800,15.259104736328124,11.824986457824707,-7.6630730628967285,-3.7671618461608887
1707603344525998600,15.27799853515625,6.604152202606201,-9.126922607421875,-2.5688586235046387
1707603344544892200,15.29689208984375,2.6571645736694336,-6.7429375648498535,6.371503829956055
1707603344563786000,15.315785888671876,0.2347010225057602,-1.104720115661621,11.018766403198242
1707603344582679800,15.3346796875,-3.4874091148376465,2.108715057373047,9.830161094665527
1707603344601573400,15.353573486328125,-7.6822710037231445,5.73250675201416,4.191036224365234
1707603344620467200,15.37246728515625,-10.177356719970703,9.104947090148926,-1.4572834968566895
1707603344639360800,15.39136083984375,-10.22927188873291,9.127677917480469,-2.447108268737793
1707603344658254600,15.410254638671875,-9.680984497070312,6.368480682373047,-0.8601282835006714
1707603344677148400,15.4291484375,-7.666068077087402,2.5594711303710938,0.910115122795105
1707603344696042200,15.448042236328124,-4.948859691619873,-0.8435096740722656,1.127012848854065
1707603344714935800,15.466935791015626,-1.9715086221694946,-3.0460524559020996,-0.9780541658401489
1707603344733829600,15.48582958984375,0.053592681884765625,-4.575221061706543,-4.531227111816406
1707603344752723200,15.50472314453125,1.4818860292434692,-6.393502235412598,-6.805234909057617
1707603344771617000,15.523616943359375,4.761922836303711,-7.323755264282227,-5.581769943237305
1707603344790510800,15.5425107421875,7.484808921813965,-7.9240336418151855,-4.367603302001953
1707603344809404400,15.561404296875,8.53526496887207,-8.543067932128906,-3.750945806503296
1707603344828298200,15.58029833984375,6.391406536102295,-8.659830093383789,-1.9019865989685059
1707603344847191800,15.59919189453125,3.9499096870422363,-6.496155738830566,4.972240447998047
1707603344866085600,15.618085693359374,1.05965256690979,-1.1751823425292969,8.055686950683594
1707603344884979500,15.6369794921875,-3.2509407997131348,2.966536521911621,6.672283172607422
1707603344903873300,15.655873291015626,-7.037704944610596,6.485030174255371,4.4616546630859375
1707603344922766800,15.674766845703125,-9.637716293334961,9.653929710388184,2.185094118118286
1707603344941660700,15.69366064453125,-9.833735466003418,9.721163749694824,0.9447720050811768
1707603344960554200,15.71255419921875,-9.49097728729248,7.147110939025879,0.5863269567489624
1707603344979448000,15.731447998046875,-7.902400016784668,3.1606788635253906,0.34721875190734863
1707603344998342000,15.750341796875,-5.0154008865356445,-0.32834815979003906,-0.6454869508743286
1707603345017235500,15.7692353515625,-2.181605815887451,-2.7690372467041016,-2.810177803039551
1707603345036129300,15.78812939453125,-0.2648864984512329,-5.03851318359375,-4.645221710205078
1707603345055023000,15.807023193359376,1.6324009895324707,-7.5594072341918945,-4.266430377960205
1707603345073916700,15.825916748046875,5.490438938140869,-9.092430114746094,-2.4941203594207764
1707603345092810500,15.844810546875,8.956554412841797,-9.514087677001953,-1.90543794631958
1707603345111704300,15.863704345703125,9.448779106140137,-9.06193733215332,-2.010006904602051
1707603345130598000,15.882597900390625,7.008481025695801,-8.699585914611816,-2.366697072982788
1707603345149491700,15.90149169921875,3.5613081455230713,-7.245226860046387,1.472260594367981
1707603345168385300,15.92038525390625,1.905423641204834,-2.8387503623962402,4.446078777313232
1707603345187279000,15.939279052734374,-0.74090576171875,1.123398780822754,4.486499786376953
1707603345206173000,15.9581728515625,-5.000401496887207,4.483652114868164,4.317330360412598
1707603345225066500,15.97706640625,-9.154012680053711,8.779101371765137,0.6785130500793457
1707603345243960300,15.995960205078125,-10.928266525268555,9.946700096130371,-1.7492159605026245
1707603345262854100,16.014854248046873,-11.303390502929688,8.215540885925293,-2.5000967979431152
1707603345281747700,16.033747802734375,-10.296651840209961,4.44602108001709,-1.9053765535354614
1707603345300641500,16.0526416015625,-7.51019287109375,0.4458627700805664,-0.734930694103241
1707603345319535400,16.071535400390626,-3.8032495975494385,-2.6389341354370117,-0.7352461814880371
1707603345338429000,16.090428955078124,-0.8696262240409851,-5.078389644622803,-3.0005569458007812
1707603345357322800,16.10932275390625,1.1572144031524658,-7.018402099609375,-4.682659149169922
1707603345376216300,16.12821630859375,3.9695346355438232,-8.691034317016602,-5.273385524749756
1707603345395110100,16.147110107421874,7.844566345214844,-9.777623176574707,-5.141104698181152
1707603345414004000,16.16600390625,10.282637596130371,-9.711076736450195,-3.359443187713623
1707603345432897500,16.1848974609375,9.068460464477539,-9.000886917114258,1.4909918308258057
1707603345451791400,16.203791259765627,5.051480770111084,-7.525327682495117,5.312182903289795
1707603345470685200,16.222685302734376,0.29136335849761963,-3.330887794494629,6.406097412109375
1707603345489579000,16.2415791015625,-4.563897132873535,1.4183731079101562,5.328774452209473
1707603345508472600,16.26047265625,-9.301190376281738,8.057507514953613,0.5932396054267883
1707603345527366400,16.279366455078126,-11.269914627075195,12.120667457580566,-2.82468843460083
1707603345546260000,16.298260009765624,-11.498983383178711,11.712445259094238,-3.011589288711548
1707603345565153800,16.31715380859375,-10.525557518005371,7.847428321838379,0.17831270396709442
1707603345584047600,16.336047607421875,-8.437870025634766,2.4128646850585938,3.2567286491394043
1707603345602941200,16.354941162109377,-5.814177513122559,-2.046529769897461,3.2775447368621826
1707603345621835000,16.3738349609375,-3.108933448791504,-5.360827445983887,1.2726949453353882
1707603345640728800,16.392728759765625,0.2534099817276001,-6.486037254333496,-2.6454873085021973
1707603345659622400,16.411622314453126,2.7539868354797363,-7.062128067016602,-5.592798233032227
1707603345678516200,16.43051611328125,4.560889720916748,-7.606038570404053,-6.748476982116699
1707603345697410000,16.44941015625,6.055605411529541,-8.820849418640137,-6.725093841552734
1707603345716303600,16.4683037109375,7.51536750793457,-9.323705673217773,-4.873351573944092
1707603345735197400,16.487197509765625,7.908320426940918,-8.883855819702148,-1.4779349565505981
1707603345754091000,16.506091064453123,5.508697509765625,-7.259987831115723,2.124835729598999
1707603345772984800,16.52498486328125,1.766025424003601,-4.052898406982422,3.3942649364471436
1707603345791878700,16.543878662109375,-2.0887250900268555,-0.7996149063110352,3.8584463596343994
1707603345810772200,16.562772216796876,-5.937136173248291,3.2051076889038086,5.484582424163818
1707603345829666000,16.581666015625,-7.364718437194824,9.281176567077637,7.079938888549805
1707603345848559900,16.600559814453124,-9.213874816894531,12.744818687438965,4.82621955871582
1707603345867453400,16.619453369140626,-11.153780937194824,10.535943984985352,1.7560361623764038
1707603345886347300,16.63834716796875,-10.499823570251465,6.3881378173828125,-0.4020822048187256
1707603345905241000,16.657240966796873,-8.314393043518066,1.5669641494750977,-1.1520540714263916
1707603345924134700,16.676134765625,-5.399409294128418,-2.280672073364258,-2.2689764499664307
1707603345943028500,16.695028564453125,-1.6622852087020874,-4.900491714477539,-4.1403489112854
1707603345961922300,16.71392236328125,0.9805679321289062,-6.9169158935546875,-6.296905517578125
1707603345980816000,16.73281591796875,3.0153777599334717,-8.572385787963867,-6.519018173217773
1707603345999709700,16.751709716796874,4.747951507568359,-9.980690956115723,-4.779711723327637
1707603346018603500,16.770603515625,6.448520660400391,-10.776220321655273,-3.3562607765197754
1707603346037497000,16.7894970703125,8.246098518371582,-10.850321769714355,-2.5811007022857666
1707603346056391000,16.808390869140624,8.422325134277344,-9.244305610656738,-1.6101628541946411
1707603346075284700,16.82728466796875,4.63288688659668,-7.004612922668457,0.7842879295349121
1707603346094178300,16.84617822265625,-1.8369158506393433,-4.119686126708984,3.412081241607666
1707603346113072000,16.865072021484377,-5.9025044441223145,-0.0112457275390625,6.876628875732422
1707603346131965700,16.883965576171875,-6.527976989746094,7.41409969329834,8.151172637939453
1707603346150859500,16.902859619140624,-8.077458381652832,13.708823204040527,4.943244934082031
1707603346169753300,16.92175341796875,-10.469820976257324,13.419559478759766,2.980799436569214
1707603346188647000,16.94064697265625,-10.354848861694336,9.922869682312012,1.0075429677963257
1707603346207540700,16.959540771484374,-8.540067672729492,4.834683418273926,0.002422332763671875
1707603346226434600,16.9784345703125,-6.253653049468994,-0.08923530578613281,-0.5117850303649902
1707603346245328100,16.997328125,-3.241575002670288,-3.745206832885742,-1.5859310626983643
1707603346264222000,17.016221923828127,-1.0879123210906982,-6.49046516418457,-2.8068809509277344
1707603346283115800,17.03511572265625,0.5266773700714111,-8.511635780334473,-3.5238218307495117
1707603346302009300,17.05400927734375,1.9879920482635498,-9.781180381774902,-3.1335675716400146
1707603346320903200,17.072903076171876,4.775526523590088,-10.436592102050781,-2.704368829727173
1707603346339797000,17.091796875,7.402507781982422,-10.287934303283691,-2.1514387130737305
1707603346358690600,17.110690673828124,8.3369779586792,-9.666014671325684,-0.9094550609588623
1707603346377584400,17.12958447265625,6.190315246582031,-8.567710876464844,-0.18383312225341797
1707603346396478000,17.14847802734375,1.6714513301849365,-6.6380815505981445,0.44315528869628906
1707603346415371800,17.167371826171873,-3.0546131134033203,-2.615072727203369,1.3150697946548462
1707603346434265600,17.186265625,-7.30790901184082,3.7418251037597656,1.4057635068893433
1707603346453159400,17.205159423828125,-9.51242446899414,9.398588180541992,-0.7445192337036133
1707603346472053000,17.224052978515626,-11.027708053588867,12.752293586730957,-2.0003502368927
1707603346490946800,17.24294677734375,-12.094663619995117,13.133325576782227,-1.074552059173584
1707603346509840600,17.261840576171874,-12.190688133239746,9.702653884887695,-0.062315940856933594
1707603346528734200,17.280734130859376,-10.348854064941406,4.209360122680664,1.2603764533996582
1707603346547628000,17.2996279296875,-6.753861904144287,-0.7318019866943359,1.456592082977295
1707603346566521600,17.318521484375,-3.5126101970672607,-4.581256866455078,0.32850217819213867
1707603346585415400,17.33741552734375,-0.6568393707275391,-7.671567440032959,-0.6880884170532227
1707603346604309200,17.356309326171875,1.6734464168548584,-9.83901309967041,-1.3373112678527832
1707603346623203000,17.375203125,3.3749678134918213,-11.086148262023926,-1.1985678672790527
1707603346642096600,17.3940966796875,4.896636486053467,-11.584665298461914,-0.3771820068359375
1707603346660990500,17.412990478515624,7.6781415939331055,-11.167601585388184,0.5655713081359863
1707603346679884000,17.431884033203126,10.316539764404297,-10.073890686035156,0.6198241710662842
1707603346698777900,17.45077783203125,9.682235717773438,-10.026869773864746,-0.9610733985900879
1707603346717671700,17.469671630859374,4.856445789337158,-10.084531784057617,-2.573246479034424
1707603346736565200,17.488565185546875,-0.2032146453857422,-5.792886734008789,-3.978884220123291
1707603346755459000,17.507458984375,-5.504642009735107,1.2753586769104004,-3.3067455291748047
1707603346774353000,17.526352783203127,-12.217170715332031,6.902761936187744,-2.179330348968506
1707603346793246700,17.545246826171876,-14.961639404296875,11.086891174316406,-1.4355506896972656
1707603346812140300,17.564140380859374,-14.58028507232666,12.836017608642578,-1.6683874130249023
1707603346831034000,17.5830341796875,-12.304805755615234,10.460908889770508,-3.0014443397521973
1707603346849927700,17.601927734375,-9.052231788635254,5.431768894195557,-3.355233669281006
1707603346868821500,17.620821533203124,-6.17060661315918,0.023346900939941406,-1.7954230308532715
1707603346887715300,17.63971533203125,-2.949739694595337,-3.908738136291504,0.3624739646911621
1707603346906609000,17.65860888671875,0.038411617279052734,-6.72195291519165,1.5103888511657715
1707603346925502700,17.677502685546877,2.865596294403076,-8.674237251281738,1.5037007331848145
1707603346944396500,17.696396484375,5.784446716308594,-9.211126327514648,1.0712032318115234
1707603346963290000,17.7152900390625,7.927883625030518,-9.332003593444824,0.9450376033782959
1707603346982184000,17.734183837890626,8.93833065032959,-10.227272987365723,1.2859997749328613
1707603347001077800,17.753077880859376,7.831002235412598,-11.236438751220703,1.0305156707763672
1707603347019971300,17.771971435546874,4.827125549316406,-12.490388870239258,-0.5511507987976074
1707603347038865200,17.790865234375,1.2585245370864868,-12.39038372039795,-2.8741331100463867
1707603347057759000,17.809759033203125,-1.6634937524795532,-9.77389907836914,-4.2858076095581055
1707603347076652500,17.828652587890623,-3.6288352012634277,-6.145028591156006,-4.9279608726501465
1707603347095546400,17.84754638671875,-6.49595832824707,-2.3225603103637695,-3.5500388145446777
1707603347114440000,17.86643994140625,-9.008150100708008,2.025747776031494,-1.6469707489013672
1707603347133333800,17.885333740234376,-10.839500427246094,7.098637104034424,-1.2036466598510742
1707603347152227600,17.9042275390625,-12.728819847106934,11.448356628417969,-2.977832794189453
1707603347171121400,17.923121337890624,-14.308050155639648,13.363323211669922,-5.6884765625
1707603347190015000,17.942014892578126,-14.774126052856445,11.245542526245117,-6.823348045349121
1707603347208908800,17.96090869140625,-13.095145225524902,6.256680011749268,-5.665508270263672
1707603347227802600,17.979802734375,-9.730372428894043,0.7911691665649414,-3.415555000305176
1707603347246696200,17.9986962890625,-6.496090888977051,-3.901198387145996,-1.7621498107910156
1707603347265590000,18.017590087890625,-3.5219333171844482,-7.515909194946289,-1.2048587799072266
1707603347284483600,18.036483642578126,-1.0854003429412842,-10.901089668273926,-1.3009529113769531
1707603347322271200,18.074271240234374,5.11756706237793,-13.315203666687012,-0.916748046875
1707603347341165000,18.0931650390625,8.579628944396973,-12.192541122436523,0.44597911834716797
1707603347360058600,18.11205859375,10.526179313659668,-10.548995971679688,1.2275099754333496
1707603347378952400,18.130952392578124,8.321134567260742,-9.945619583129883,2.0304713249206543
1707603347397846300,18.14984619140625,3.913952350616455,-9.777210235595703,2.0541293621063232
1707603347416739800,18.16873974609375,0.601807713508606,-7.539493083953857,1.12827730178833
1707603347435633700,18.187633544921876,-1.7761781215667725,-2.4526596069335938,-1.4996027946472168
1707603347454527200,18.20652734375,-5.239593982696533,3.5885186195373535,-3.1216068267822266
1707603347473421000,18.225421142578124,-10.823822975158691,9.218734741210938,-3.9952287673950195
1707603347492315000,18.24431494140625,-14.868749618530273,12.403650283813477,-4.30322790145874
1707603347511208700,18.263208740234376,-15.230087280273438,12.092538833618164,-4.324267864227295
1707603347530102300,18.282102294921874,-11.496465682983398,8.56405258178711,-4.606075763702393
1707603347548996000,18.30099609375,-8.065901756286621,3.415738105773926,-3.8258848190307617
1707603347567890000,18.319889892578125,-5.940577983856201,-1.4557433128356934,-2.845184803009033
1707603347586783500,18.338783447265627,-4.783370018005371,-6.099102020263672,-2.3784332275390625
1707603347605677300,18.35767724609375,-3.3835690021514893,-10.612848281860352,-2.7837531566619873
1707603347624571000,18.37657080078125,0.42519640922546387,-13.165801048278809,-2.3547637462615967
1707603347643464700,18.395464599609376,5.380608081817627,-12.374347686767578,-1.2441585063934326
1707603347662358500,18.414358642578126,9.98153305053711,-9.73481559753418,0.00521087646484375
1707603347681252400,18.43325244140625,9.842891693115234,-8.096647262573242,0.917009711265564
1707603347700146000,18.45214599609375,5.309843063354492,-7.659307479858398,0.9227519035339355
1707603347719039700,18.471039794921875,1.515507698059082,-6.006118297576904,0.9138495922088623
1707603347737933600,18.48993359375,-0.7667245864868164,-1.5826892852783203,2.1343188285827637
1707603347756827100,18.5088271484375,-1.7490123510360718,1.6821117401123047,2.2319653034210205
1707603347775721000,18.527720947265625,-3.6943881511688232,5.167606353759766,1.1530994176864624
1707603347794614500,18.546614501953126,-4.8843817710876465,8.864997863769531,0.2964388132095337
1707603347813508400,18.56550830078125,-5.136514663696289,10.544428825378418,-1.3762381076812744
1707603347832402200,18.584402099609374,-6.595822334289551,9.177693367004395,-2.290215015411377
1707603347851296000,18.6032958984375,-6.542505264282227,5.646422386169434,-1.645963430404663
1707603347870189600,18.622189453125,-4.9615325927734375,2.1730737686157227,-1.1766374111175537
1707603347889083400,18.64108349609375,-3.764902114868164,-1.0613312721252441,-0.5250918865203857
1707603347907977200,18.659977294921877,-2.312228202819824,-4.957699775695801,-0.4462805986404419
1707603347926870800,18.678870849609375,0.572206974029541,-8.483954429626465,-0.7088590860366821
1707603347945764600,18.6977646484375,5.557656764984131,-10.094518661499023,0.6959503889083862
1707603347964658200,18.716658203125,8.535011291503906,-10.189512252807617,1.5541456937789917
1707603347983552000,18.735552001953124,7.357232570648193,-9.432546615600586,0.9407398104667664
1707603348002445800,18.75444580078125,3.662177562713623,-9.021127700805664,-0.9762494564056396
1707603348021339600,18.773339599609375,-0.032914161682128906,-6.794533729553223,-0.6786850690841675
1707603348040233200,18.792233154296873,-1.1829066276550293,-2.541604518890381,3.6120169162750244
1707603348059127000,18.811126953125,-1.1681201457977295,2.184018135070801,5.866255283355713
1707603348078020900,18.830020751953125,-2.4501161575317383,6.144903182983398,4.092162132263184
1707603348096914400,18.84891455078125,-4.782504081726074,8.967042922973633,-0.954582929611206
1707603348115808300,18.867808349609376,-5.882198810577393,9.784261703491211,-3.92751145362854
1707603348134701800,18.886701904296874,-5.9901251792907715,8.621171951293945,-4.824722766876221
1707603348153595600,18.905595703125,-5.861144542694092,5.771764755249023,-3.045320987701416
1707603348172489500,18.924489501953126,-5.467951774597168,2.3780593872070312,-0.7552711963653564
1707603348191383300,18.94338330078125,-4.09280252456665,-0.41377735137939453,0.44724905490875244
1707603348210276900,18.96227685546875,-2.4514713287353516,-3.031372547149658,0.1938152313232422
1707603348229170700,18.981170654296875,-1.4176816940307617,-6.263620853424072,-0.8520058393478394
1707603348248064500,19.000064453125,0.9975433349609375,-9.278982162475586,-1.9498815536499023
1707603348266958000,19.0189580078125,4.6067304611206055,-10.379993438720703,-3.4415574073791504
1707603348285852000,19.037851806640624,6.0486602783203125,-9.50610637664795,-2.885000467300415
1707603348304745500,19.056745361328126,4.288518905639648,-8.787229537963867,-1.3132271766662598
1707603348323639300,19.075639404296876,2.397761821746826,-6.134869575500488,3.013418197631836
1707603348342533000,19.094533203125,1.7706422805786133,-0.9508252143859863,7.787163734436035
1707603348361427000,19.113427001953124,-1.6335186958312988,4.284340858459473,6.451140880584717
1707603348380320500,19.132320556640625,-5.240652084350586,8.987452507019043,0.001043081283569336
1707603348399214300,19.15121435546875,-7.077549457550049,10.860709190368652,-4.523377418518066
1707603348418108200,19.170108154296877,-5.812896251678467,10.439663887023926,-5.59782600402832
1707603348437001700,19.189001708984375,-5.119663238525391,7.928101539611816,-3.8276915550231934
1707603348455895600,19.2078955078125,-5.443251609802246,3.803171157836914,0.2818514108657837
1707603348474789400,19.226789306640626,-5.056595802307129,-1.100123405456543,1.5858138799667358
1707603348493683200,19.24568310546875,-2.882704257965088,-5.390397071838379,0.5840592384338379
1707603348512576800,19.26457666015625,1.6633434295654297,-8.892603874206543,-1.2716474533081055
1707603348531470600,19.283470703125,7.138437747955322,-9.818007469177246,-1.2385334968566895
1707603348550364200,19.3023642578125,8.79568862915039,-9.40854263305664,0.6410068869590759
1707603348569258000,19.321258056640627,6.113758563995361,-9.279289245605469,1.6270232200622559
1707603348588151800,19.34015185546875,1.9955816268920898,-8.074477195739746,0.6408488154411316
1707603348607045400,19.35904541015625,0.706383228302002,-3.5419492721557617,3.520735502243042
1707603348625939200,19.377939208984376,0.10505247116088867,1.9619646072387695,5.914455413818359
1707603348644833000,19.3968330078125,-3.2388548851013184,6.910710334777832,2.5402042865753174
1707603348663726800,19.415726806640624,-6.681280136108398,9.921974182128906,-1.85533607006073
1707603348682620400,19.434620361328125,-7.728263854980469,10.138108253479004,-3.4502320289611816
1707603348701514200,19.45351416015625,-6.886920928955078,7.964914321899414,-4.5555524826049805
1707603348720408000,19.472407958984373,-5.43167781829834,4.7013349533081055,-3.097795009613037
1707603348739301600,19.491301513671875,-4.955231666564941,1.0905733108520508,-1.114992618560791
1707603348758195500,19.510195556640625,-4.116978645324707,-2.3582167625427246,-1.4557745456695557
1707603348777089000,19.529089111328126,-2.2789320945739746,-5.067525386810303,-3.2141661643981934
1707603348795982800,19.54798291015625,0.5823793411254883,-7.119841575622559,-3.5951716899871826
1707603348814876700,19.566876708984374,3.915313243865967,-8.363092422485352,-2.142432451248169
1707603348833770500,19.5857705078125,6.158834934234619,-9.46137809753418,-0.31984251737594604
1707603348852664000,19.6046640625,5.5012383460998535,-9.527664184570312,-0.22803248465061188
1707603348871558000,19.623557861328123,3.183816909790039,-8.858244895935059,-1.2728395462036133
1707603348890451700,19.64245166015625,1.7475371360778809,-6.089268207550049,1.350716233253479
1707603348909345300,19.66134521484375,1.37349271774292,-1.4470853805541992,4.231091022491455
1707603348928239000,19.680239013671876,-0.8661363124847412,3.285281181335449,4.050579071044922
1707603348947133000,19.6991328125,-4.228634357452393,6.377418518066406,1.843864917755127
1707603348966026500,19.718026611328124,-5.938072204589844,9.65703296661377,0.2622261047363281
1707603348984920300,19.73692041015625,-5.996484756469727,10.018153190612793,-1.084670901298523
1707603349003814100,19.755814208984376,-5.797768592834473,7.538823127746582,-1.311392068862915
1707603349022707700,19.774707763671874,-4.813051700592041,4.121230125427246,-0.8315351605415344
1707603349041601500,19.7936015625,-3.8921866416931152,0.7360906600952148,-0.5130986571311951
1707603349060495400,19.812495361328125,-2.884164810180664,-2.294546127319336,-2.244943618774414
1707603349079389000,19.831388916015626,-0.9395613670349121,-4.793548107147217,-5.813170909881592
1707603349098282800,19.85028271484375,2.6000804901123047,-6.672779560089111,-6.961892127990723
1707603349117176600,19.869176513671874,5.032559871673584,-7.793053150177002,-4.936476707458496
1707603349136070100,19.888070068359376,5.056870460510254,-9.329645156860352,-2.2343029975891113
1707603349154964000,19.9069638671875,3.856597900390625,-9.436885833740234,-0.7772830724716187
1707603349173857800,19.92585791015625,2.8588337898254395,-8.130563735961914,-0.3720219135284424
1707603349192751400,19.94475146484375,-0.05048227310180664,-5.353870391845703,-0.23207688331604004
1707603349211645200,19.963645263671875,-3.037539482116699,1.8123207092285156,-0.711860179901123
1707603349230539000,19.9825390625,-6.407232284545898,5.040124893188477,2.558189630508423
1707603349249432600,20.0014326171875,-7.9929070472717285,8.066122055053711,7.622915267944336
1707603349268326400,20.020326416015624,-5.515254974365234,10.773689270019531,9.487592697143555
1707603349287220200,20.03922021484375,-5.312903881072998,9.542356491088867,7.129436492919922
1707603349325007600,20.077007568359374,-5.415521621704102,1.8387889862060547,-1.4638104438781738
1707603349343901400,20.0959013671875,-3.035947322845459,-1.783198356628418,-6.529561519622803
1707603349362795300,20.114795166015625,-0.5294699668884277,-5.445667743682861,-10.618020057678223
1707603349381688800,20.133688720703127,3.32578706741333,-8.489397048950195,-9.636110305786133
1707603349400582700,20.152582763671877,8.082292556762695,-10.214057922363281,-3.9616379737854004
1707603349419476500,20.1714765625,8.470941543579102,-10.424667358398438,-0.07981324195861816
1707603349438370000,20.1903701171875,4.571918487548828,-10.19122314453125,-0.6407251358032227
1707603349457263900,20.209263916015626,0.45165085792541504,-9.368451118469238,-2.3732709884643555
1707603349476157400,20.228157470703124,-1.4160199165344238,-6.059693813323975,-0.1949462890625
1707603349495051300,20.24705126953125,-0.408119797706604,0.4844398498535156,5.58722448348999
1707603349513945000,20.265945068359375,-1.3127386569976807,6.590876579284668,9.359596252441406
1707603349532839000,20.2848388671875,-4.593670845031738,8.923100471496582,8.396944046020508
1707603349551732500,20.303732421875,-6.3918046951293945,9.873775482177734,6.3757853507995605
1707603349570626300,20.322626220703125,-7.561172962188721,8.50169563293457,4.367656707763672
1707603349589520100,20.34152001953125,-8.331267356872559,5.0417585372924805,3.700587272644043
1707603349608413700,20.36041357421875,-7.419857501983643,1.4893112182617188,2.2409896850585938
1707603349627307500,20.3793076171875,-6.054129123687744,-2.064085006713867,-0.5081429481506348
1707603349646201300,20.398201416015624,-2.804628610610962,-4.4064483642578125,-3.9716498851776123
1707603349665095200,20.41709521484375,0.03733563423156738,-6.6996002197265625,-8.740429878234863
1707603349683988700,20.43598876953125,2.7733981609344482,-8.646611213684082,-10.224072456359863
1707603349702882600,20.454882568359373,6.974795818328857,-9.403838157653809,-8.741652488708496
1707603349721776400,20.4737763671875,7.613673210144043,-8.874489784240723,-6.249230861663818
1707603349740670000,20.492669921875,4.673648357391357,-8.4328031539917,-3.6530601978302
1707603349759563800,20.511563720703126,2.458752155303955,-5.8060712814331055,1.195180892944336
1707603349778457300,20.530457275390624,2.2063071727752686,-0.4630560874938965,6.228219509124756
1707603349797351200,20.54935107421875,-1.1494693756103516,3.746647357940674,8.756803512573242
1707603349816245000,20.568244873046876,-4.86221170425415,5.815516948699951,8.609912872314453
1707603349835138800,20.587138916015626,-6.9338603019714355,7.70700216293335,7.772555828094482
1707603349854032400,20.606032470703123,-7.304377555847168,7.965627670288086,7.113981246948242
1707603349872926200,20.62492626953125,-7.883275032043457,4.79611349105835,5.759657859802246
1707603349891820000,20.643820068359375,-7.020297050476074,1.1530513763427734,3.717884063720703
1707603349910713600,20.662713623046876,-4.918582439422607,-2.6050586700439453,-1.0660653114318848
1707603349929607400,20.681607421875,-1.80231773853302,-4.453003883361816,-7.1387481689453125
1707603349948501200,20.700501220703124,1.4945685863494873,-4.86985445022583,-10.241273880004883
1707603349967395000,20.71939501953125,3.9133591651916504,-5.303826332092285,-9.090421676635742
1707603349986288600,20.73828857421875,6.012403964996338,-6.610569953918457,-7.7762861251831055
1707603350005182500,20.757182373046874,6.137400150299072,-7.483268737792969,-6.614392280578613
1707603350024076300,20.776076171875,4.754200458526611,-7.637897968292236,-4.818763732910156
1707603350042969900,20.794969970703125,2.6586289405822754,-7.088674545288086,-1.8317208290100098
1707603350061863700,20.81386376953125,2.0227339267730713,-4.488304138183594,2.3559460639953613
1707603350080757500,20.832757568359376,1.908752202987671,-1.0527715682983398,6.21881103515625
1707603350099651000,20.851651123046874,0.7640993595123291,1.1911425590515137,8.179903984069824
1707603350118545000,20.870544921875,-1.0114319324493408,3.7542896270751953,8.102561950683594
1707603350137438700,20.889438720703126,-3.189055919647217,5.398669242858887,6.608818054199219
1707603350156332300,20.908332275390624,-5.127317905426025,6.221590518951416,4.454774856567383
1707603350175226000,20.92722607421875,-6.334670066833496,5.8417229652404785,2.867924690246582
1707603350194120000,20.946119873046875,-6.269708633422852,3.7028231620788574,1.4515504837036133
1707603350213013500,20.965013427734377,-5.338015556335449,1.6331896781921387,1.2479314804077148
1707603350231907300,20.9839072265625,-3.993577003479004,-0.23416948318481445,1.2180299758911133
1707603350250801200,21.00280126953125,-2.99149489402771,-2.3214786052703857,0.49149036407470703
1707603350269695000,21.021695068359374,-1.612004041671753,-4.291047096252441,-1.6160922050476074
1707603350288588500,21.040588623046876,0.8072352409362793,-5.020224094390869,-5.294103622436523
1707603350307482400,21.059482421875,3.1914172172546387,-4.914322376251221,-9.657020568847656
1707603350326376200,21.078376220703124,4.297834396362305,-4.498073101043701,-8.936906814575195
1707603350345269800,21.097269775390625,4.401702880859375,-4.184594631195068,-4.899609565734863
1707603350364163600,21.11616357421875,2.406998634338379,-4.869718074798584,-2.5838446617126465
1707603350383057400,21.135057373046877,1.5693235397338867,-4.188248634338379,-0.13679933547973633
1707603350401951000,21.153950927734375,2.3560328483581543,-1.400956392288208,5.372373580932617
1707603350420844800,21.1728447265625,1.779188871383667,2.022616147994995,11.677605628967285
1707603350439738600,21.191738525390626,-1.7836496829986572,4.931591987609863,13.04393482208252
1707603350458632400,21.210632568359376,-5.737171173095703,5.657893180847168,9.444721221923828
1707603350477526000,21.229526123046874,-7.817073822021484,4.3672261238098145,6.589893341064453
1707603350496419800,21.248419921875,-7.388853073120117,1.7290740013122559,5.486952781677246
1707603350515313400,21.2673134765625,-4.941286087036133,-1.4172711372375488,4.412905216217041
1707603350534207200,21.286207275390623,-2.6394124031066895,-3.9418654441833496,1.4890704154968262
1707603350553101000,21.30510107421875,-0.8170590400695801,-6.201877117156982,-3.241903305053711
1707603350571994600,21.32399462890625,2.6833577156066895,-7.25502872467041,-7.079314708709717
1707603350590888400,21.342888427734376,5.23371696472168,-6.677940368652344,-8.448537826538086
1707603350609782300,21.3617822265625,5.814682483673096,-5.311696529388428,-8.151629447937012
1707603350628676000,21.380676025390624,4.200203895568848,-4.335973739624023,-6.9528727531433105
1707603350647569700,21.399569580078126,1.5924382209777832,-3.994680404663086,-7.032255172729492
1707603350666463500,21.41846337890625,-0.4779231548309326,-3.413850784301758,-6.724619388580322
1707603350685357300,21.437357421875,-0.25939226150512695,-0.9355950355529785,-2.533236026763916
1707603350704251000,21.4562509765625,0.1247091293334961,2.135542869567871,5.449802875518799
1707603350723144700,21.475144775390625,0.18328356742858887,5.100719928741455,11.450697898864746
1707603350742038500,21.49403857421875,-2.043095350265503,5.983249187469482,13.34187126159668
1707603350760932400,21.512932373046876,-3.381045341491699,5.090620517730713,12.382802963256836
1707603350779826000,21.531825927734374,-3.687255859375,3.2105603218078613,10.354747772216797
1707603350798719700,21.5507197265625,-3.658153772354126,0.799431324005127,7.82580041885376
1707603350817613600,21.569613525390626,-3.5122222900390625,-1.7845020294189453,4.899667263031006
1707603350836507100,21.588507080078124,-2.546598434448242,-4.023570537567139,1.356992244720459
1707603350855401000,21.60740087890625,-0.7128651142120361,-6.21130895614624,-2.3153905868530273
1707603350874294800,21.626294677734375,2.095104217529297,-7.585067272186279,-6.610566139221191
1707603350893188600,21.645188720703125,5.464720249176025,-6.983739852905273,-9.730599403381348
1707603350912082200,21.664082275390626,5.904231548309326,-7.221818923950195,-11.070901870727539
1707603350930976000,21.68297607421875,4.416796684265137,-7.680121898651123,-10.299813270568848
1707603350949869800,21.701869873046874,3.3364064693450928,-7.145761013031006,-8.875091552734375
1707603350968763400,21.720763427734376,2.2119333744049072,-6.072845935821533,-6.95620059967041
1707603350987657200,21.7396572265625,0.3882133960723877,-4.72276496887207,-1.7666239738464355
1707603351006551000,21.758551025390624,1.9254822731018066,-0.056223392486572266,7.374403953552246
1707603351025444900,21.77744482421875,1.8930401802062988,4.944703578948975,14.904073715209961
1707603351044338400,21.79633837890625,-2.1240780353546143,5.658714294433594,15.630653381347656
1707603351063232300,21.815232177734377,-5.580367088317871,4.200163841247559,12.327341079711914
1707603351082126000,21.8341259765625,-6.696569919586182,2.22194242477417,9.906639099121094
1707603351101019600,21.85301953125,-5.616994857788086,0.10164022445678711,6.759153842926025
1707603351119913500,21.87191357421875,-4.324570178985596,-1.4446592330932617,3.4311184883117676
1707603351138807000,21.89080712890625,-3.2528181076049805,-3.4481377601623535,-1.0248169898986816
1707603351157700900,21.909700927734374,-1.3559839725494385,-4.625021457672119,-6.528160095214844
1707603351176594700,21.9285947265625,1.0841343402862549,-4.85228157043457,-10.733026504516602
1707603351195488500,21.947488525390625,2.290891170501709,-4.839712142944336,-11.825481414794922
1707603351214382000,21.966382080078127,3.487546682357788,-4.238104820251465,-10.007144927978516
1707603351233276000,21.98527587890625,2.5710480213165283,-4.500671863555908,-8.403572082519531
1707603351252169700,22.004169677734374,1.9414925575256348,-4.4121317863464355,-5.566956520080566
1707603351271063300,22.023063232421876,1.9212009906768799,-3.5699992179870605,-1.8576855659484863
1707603351289957000,22.04195703125,2.8131415843963623,-0.903120756149292,4.563934326171875
1707603351327744800,22.079744873046874,-0.27109622955322266,5.295931816101074,13.71241569519043
1707603351346638300,22.098638427734375,-3.8704891204833984,5.5743560791015625,11.752641677856445
1707603351365532200,22.1175322265625,-5.111913681030273,3.2268800735473633,11.235893249511719
1707603351384426000,22.136426025390627,-3.9029760360717773,0.23489761352539062,10.368096351623535
1707603351403319600,22.155319580078125,-1.7216594219207764,-2.0746240615844727,9.126727104187012
1707603351422213400,22.17421337890625,-1.2617900371551514,-4.962194442749023,5.805344581604004
1707603351441107200,22.193107177734376,-1.1352267265319824,-7.205620765686035,1.3357725143432617
1707603351460000800,22.212000732421874,-0.13312673568725586,-8.14527416229248,-3.6809747219085693
1707603351478894600,22.23089453125,1.6613121032714844,-6.96241569519043,-7.216139316558838
1707603351497788400,22.249788330078125,2.9506592750549316,-5.534291744232178,-9.134170532226562
1707603351516682200,22.26868212890625,3.6673903465270996,-5.277735710144043,-9.769147872924805
1707603351535575800,22.287575927734373,2.924957752227783,-5.2029314041137695,-9.038954734802246
1707603351554469600,22.3064697265625,1.6559200286865234,-4.276510238647461,-7.16046142578125
1707603351573363500,22.325363525390625,1.287745714187622,-2.9639158248901367,-6.007559776306152
1707603351592257000,22.344257080078126,0.8682856559753418,-1.7506365776062012,-4.219179153442383
1707603351611150800,22.36315087890625,0.719139575958252,0.6948795318603516,-0.2790813446044922
1707603351630044700,22.382044677734374,-0.7199015617370605,3.1717467308044434,4.309546947479248
1707603351648938500,22.4009384765625,-1.76006019115448,4.771819114685059,8.886542320251465
1707603351667832000,22.41983203125,-2.2469305992126465,5.586220741271973,11.823505401611328
1707603351686726000,22.438725830078123,-2.8853249549865723,4.796013832092285,11.851818084716797
1707603351705619700,22.45761962890625,-3.7984089851379395,2.60459566116333,9.531820297241211
1707603351724513300,22.47651318359375,-3.5700902938842773,0.14250564575195312,6.856535911560059
1707603351743407000,22.495406982421876,-2.2960996627807617,-1.8591485023498535,3.9107789993286133
1707603351762301000,22.514301025390626,-0.9538191556930542,-3.729038953781128,0.6936125755310059
1707603351781194800,22.53319482421875,-0.4454505443572998,-4.859548091888428,-3.1211535930633545
1707603351800088300,22.55208837890625,-0.057097673416137695,-4.990913391113281,-5.890781402587891
1707603351818982100,22.570982177734376,0.8657174110412598,-4.558737754821777,-7.41252326965332
1707603351837876000,22.5898759765625,1.881126880645752,-3.7515711784362793,-9.314765930175781
1707603351856769500,22.60876953125,1.6311490535736084,-3.654756546020508,-9.906729698181152
1707603351875663400,22.627663330078125,0.4539613723754883,-4.083463668823242,-9.72319507598877
1707603351894557200,22.64655712890625,-0.12863779067993164,-3.834324836730957,-7.633984565734863
1707603351913451000,22.665450927734376,-1.5881201028823853,-2.611391544342041,-2.788727283477783
1707603351932344600,22.684344482421874,-1.670180082321167,-0.396634578704834,4.594066143035889
1707603351951238400,22.70323828125,1.0481975078582764,3.566997528076172,9.98692798614502
1707603351970132200,22.72213232421875,2.4899075031280518,5.238273620605469,12.713212966918945
1707603351989025800,22.74102587890625,1.1713471412658691,5.361423969268799,13.245927810668945
1707603352007919600,22.759919677734374,-0.8698866367340088,4.495644569396973,12.250946044921875
1707603352026813400,22.7788134765625,-1.4718101024627686,1.8646249771118164,10.621481895446777
1707603352045707300,22.797707275390625,-1.7664055824279785,-1.098952293395996,8.254895210266113
1707603352064600800,22.816600830078126,-2.5562312602996826,-4.203644275665283,4.598985195159912
1707603352083494700,22.83549462890625,-2.993417739868164,-7.608731269836426,0.4536709785461426
1707603352102388500,22.854388427734374,-1.237809419631958,-7.720001697540283,-4.456538200378418
1707603352121282000,22.873281982421876,1.1195197105407715,-5.862696647644043,-7.43275260925293
1707603352140176000,22.89217578125,2.3745059967041016,-5.132779598236084,-7.252189636230469
1707603352159069700,22.911069580078124,4.031179904937744,-5.062792778015137,-5.992354393005371
1707603352177963500,22.929963623046874,4.7012224197387695,-4.783512115478516,-5.019750595092773
1707603352196857000,22.948857177734375,3.662287950515747,-4.396669387817383,-3.800211191177368
1707603352215751000,22.9677509765625,3.4146859645843506,-3.481790065765381,-3.083986282348633
1707603352234644700,22.986644775390626,3.2244784832000732,-2.776608467102051,-3.369018077850342
1707603352253538300,23.005538330078124,2.3277688026428223,-1.3624811172485352,-2.820469856262207
1707603352272432000,23.02443212890625,0.8067972660064697,0.6904840469360352,-0.3086709976196289
1707603352291325700,23.04332568359375,-1.404178500175476,3.1199612617492676,2.8355393409729004
1707603352329113300,23.08111328125,-4.295557022094727,5.69738245010376,7.626869201660156
1707603352348007000,23.1000068359375,-5.61392879486084,5.311253547668457,9.415641784667969
1707603352366900700,23.118900634765627,-6.760261058807373,3.5453805923461914,9.302656173706055
1707603352385794600,23.137794677734377,-6.8550543785095215,0.7849082946777344,7.909436225891113
1707603352404688400,23.1566884765625,-6.2464070320129395,-1.169534683227539,5.169042587280273
1707603352423582000,23.17558203125,-5.082903861999512,-3.20322847366333,2.233369827270508
1707603352442475800,23.194475830078126,-3.7855937480926514,-4.975286483764648,-0.46538805961608887
1707603352461369600,23.21336962890625,-1.7387254238128662,-6.1226911544799805,-4.166141033172607
1707603352480263200,23.23226318359375,4.172987461090088,-5.4573283195495605,-8.27247142791748
1707603352499157000,23.251156982421875,5.68009090423584,-5.406993865966797,-8.821147918701172
1707603352518050800,23.27005078125,6.856411457061768,-6.921061038970947,-6.464709281921387
1707603352536944600,23.288944580078127,7.237419128417969,-7.10791015625,-2.3407418727874756
1707603352555838200,23.307838134765625,6.462996482849121,-5.988953590393066,-0.4846932888031006
1707603352574732000,23.32673193359375,4.243990421295166,-3.8280744552612305,1.1645426750183105
1707603352593625900,23.3456259765625,1.9282745122909546,-0.7901782989501953,1.8545145988464355
1707603352612519400,23.36451953125,-0.41448652744293213,2.4352502822875977,4.276478290557861
1707603352631413200,23.383413330078124,-2.8504037857055664,4.65220832824707,4.17877197265625
1707603352650307000,23.40230712890625,-5.096836090087891,6.544366836547852,3.2400341033935547
1707603352669201000,23.421200927734375,-6.0662126541137695,6.617367744445801,2.7044789791107178
1707603352688094500,23.440094482421873,-6.707085609436035,4.707616806030273,1.9335901737213135
1707603352706988300,23.45898828125,-6.320432186126709,2.392332077026367,1.2422481775283813
1707603352725882000,23.477882080078125,-5.184908390045166,-0.22141551971435547,0.02425551414489746
1707603352744775700,23.496775634765626,-3.8291964530944824,-2.7631359100341797,-1.4429476261138916
1707603352763669500,23.51566943359375,-1.8106435537338257,-4.840656757354736,-2.2681665420532227
1707603352782563300,23.534563232421874,0.14768680930137634,-6.712635040283203,-2.3333828449249268
1707603352801457200,23.55345703125,2.302928924560547,-8.306219100952148,-1.5631542205810547
1707603352820350700,23.572350830078125,4.335086345672607,-8.579595565795898,-0.8044230937957764
1707603352839244500,23.59124462890625,5.564806938171387,-6.49425745010376,-1.0961579084396362
1707603352858138400,23.610138427734373,4.818371772766113,-4.126235008239746,-1.857855200767517
1707603352877032000,23.629031982421875,3.109610080718994,-0.6619739532470703,-1.415391206741333
1707603352895925800,23.64792578125,2.186736822128296,3.0485448837280273,-1.2057688236236572
1707603352914819600,23.666819580078126,-0.18180987238883972,4.986725807189941,-1.3042725324630737
1707603352933713400,23.68571337890625,-4.280797958374023,6.688362121582031,-3.397118091583252
1707603352952607000,23.70460693359375,-6.620645999908447,6.617413520812988,-2.5050554275512695
1707603352971500800,23.723500732421876,-7.273889064788818,5.828314781188965,-1.2591416835784912
1707603352990394600,23.74239453125,-4.630735397338867,4.25270938873291,0.23427033424377441
1707603353009288200,23.7612880859375,-1.3441118001937866,1.598123550415039,1.693679928779602
1707603353028182000,23.78018212890625,1.3728781938552856,-1.0319709777832031,3.0422353744506836
1707603353047075800,23.799075927734375,3.0586085319519043,-3.2710132598876953,3.5646443367004395
1707603353065969700,23.8179697265625,4.409374713897705,-4.686553001403809,2.9284064769744873
1707603353084863200,23.83686328125,5.463179588317871,-5.909809112548828,1.621861219406128
1707603353103757000,23.855757080078124,5.156480312347412,-7.628711700439453,1.2711303234100342
1707603353122651000,23.87465087890625,4.417052268981934,-8.881063461303711,1.4738829135894775
1707603353141544400,23.89354443359375,3.694917678833008,-8.299568176269531,0.7188329696655273
1707603353160438300,23.912438232421874,2.417203664779663,-5.542745113372803,-1.1882081031799316
1707603353179332000,23.93133203125,-0.21681810915470123,-2.4507999420166016,-2.9663143157958984
1707603353198225700,23.9502255859375,-4.069845199584961,0.8983206748962402,-3.6497907638549805
1707603353217119500,23.969119384765627,-7.53660774230957,4.944438934326172,-4.409919738769531
1707603353236013300,23.988013427734376,-9.399971961975098,7.981586933135986,-5.215781211853027
1707603353254907100,24.0069072265625,-9.25167179107666,9.118694305419922,-4.764699459075928
1707603353273800700,24.02580078125,-6.701920986175537,8.287210464477539,-3.5410189628601074
1707603353292694500,24.044694580078126,-5.025047302246094,5.202062129974365,-1.2711553573608398
1707603353311588400,24.06358837890625,-3.1366219520568848,1.4939627647399902,1.3040881156921387
1707603353330482000,24.08248193359375,-1.0058563947677612,-1.71561861038208,2.5135555267333984
1707603353349375700,24.101375732421875,1.0859249830245972,-4.731406211853027,2.98313045501709
