time,seconds_elapsed,z,y,x
1707576729404034000,0.069033935546875,0,0,0
1707576729422926600,0.087926513671875,-0.01975727081298828,0.030197620391845703,0.013535022735595703
1707576729441819100,0.106819091796875,-0.0070629119873046875,0.06221485137939453,-0.09238219261169434
1707576729460711700,0.125711669921875,0.081512451171875,-0.006455898284912109,-0.10132205486297607
1707576729479604000,0.14460400390625,0.034142494201660156,-0.11252832412719727,0.05746889114379883
1707576729498496500,0.16349658203125,0.017591476440429688,-0.015401363372802734,-0.007750272750854492
1707576729517389000,0.18238916015625,0.0772695541381836,0.07061243057250977,-0.012607216835021973
1707576729536281300,0.20128125,-0.06262683868408203,-0.015231609344482422,0.09333300590515137
1707576729555174000,0.220173828125,-0.142547607421875,0.03197956085205078,-0.024439334869384766
1707576729574066400,0.23906640625,-0.25548648834228516,0.045085906982421875,-0.05330920219421387
1707576729592959000,0.257958984375,-0.29557228088378906,0.02817535400390625,0.017932415008544922
1707576729611851300,0.276851318359375,-0.15724849700927734,0.05466175079345703,-0.02775561809539795
1707576729630743800,0.295743896484375,0.014399528503417969,0.019634246826171875,0.03580021858215332
1707576729649636400,0.31463623046875,0.09736824035644531,-0.01026296615600586,-0.01457369327545166
1707576729668528600,0.333528564453125,0.09924125671386719,-0.0422215461730957,-0.09223830699920654
1707576729687421200,0.352421142578125,0.06812095642089844,-0.02056884765625,-0.032225847244262695
1707576729706313700,0.371313720703125,-0.018207550048828125,0.01569366455078125,0.007274270057678223
1707576729725206300,0.390206298828125,-0.0666666030883789,0.008493423461914062,0.004192948341369629
1707576729744098600,0.4090986328125,-0.06793212890625,0.01058816909790039,-0.01591050624847412
1707576729762991000,0.4279912109375,-0.05877208709716797,0.016037940979003906,-0.01458752155303955
1707576729781883600,0.446883544921875,-0.06275177001953125,-0.011765003204345703,-0.0068514347076416016
1707576729800776000,0.46577587890625,-0.04627799987792969,-0.008351325988769531,-0.003990292549133301
1707576729819668500,0.48466845703125,-0.0410308837890625,-0.00011920928955078125,0.047962069511413574
1707576729838561000,0.50356103515625,-0.015982627868652344,0.008356571197509766,0.03598976135253906
1707576729857453600,0.52245361328125,-0.019161224365234375,-0.0029125213623046875,0.013234734535217285
1707576729876345900,0.541345947265625,-0.017963409423828125,-0.009020328521728516,0.0455327033996582
1707576729895238400,0.56023828125,-0.014984130859375,-0.011462211608886719,0.02898228168487549
1707576729914131000,0.579130859375,0.013363838195800781,0.010441303253173828,-0.028452515602111816
1707576729933023200,0.598023193359375,0.12245368957519531,0.05824422836303711,-0.004985809326171875
1707576729951915800,0.616915771484375,0.19967937469482422,0.033312320709228516,-0.0007262229919433594
1707576729970808300,0.635808349609375,0.35832977294921875,0.04957866668701172,0.003322601318359375
1707576729989700900,0.654700927734375,0.21021747589111328,0.010177135467529297,0.007534384727478027
1707576730008593200,0.67359326171875,-0.19085121154785156,-0.18050575256347656,0.09549546241760254
1707576730027485700,0.692485595703125,-0.6613483428955078,-0.17977571487426758,0.04923450946807861
1707576730046378200,0.711378173828125,-0.8041739463806152,0.009392738342285156,-0.05567574501037598
1707576730065270500,0.7302705078125,-0.44054698944091797,0.14144277572631836,-0.09305739402770996
1707576730084163000,0.7491630859375,0.08043575286865234,0.04356575012207031,-0.04977309703826904
1707576730103055600,0.7680556640625,0.4489297866821289,-0.06965351104736328,-0.06430947780609131
1707576730121948000,0.786947998046875,0.45713233947753906,-0.07720232009887695,-0.05200612545013428
1707576730140840400,0.80584033203125,0.26143646240234375,-0.002986907958984375,0.027650833129882812
1707576730159733000,0.82473291015625,-0.0015459060668945312,0.05975914001464844,0.007946968078613281
1707576730178625500,0.84362548828125,-0.15359783172607422,0.05925178527832031,0.029871106147766113
1707576730197517800,0.862517822265625,-0.18513965606689453,0.027153491973876953,-0.014350533485412598
1707576730216410400,0.881410400390625,-0.03832244873046875,0.06652164459228516,-0.0325702428817749
1707576730235303000,0.900302978515625,0.15024566650390625,0.0912637710571289,0.021396875381469727
1707576730254195200,0.9191953125,0.19851207733154297,0.03284931182861328,0.11728793382644653
1707576730273087700,0.938087646484375,0.12397956848144531,0.0067310333251953125,0.11007964611053467
1707576730291980300,0.956980224609375,0.018805503845214844,0.0328974723815918,0.10145699977874756
1707576730310872800,0.975872802734375,-0.0641641616821289,0.04021883010864258,0.17553842067718506
1707576730329765000,0.99476513671875,-0.13045501708984375,0.0003032684326171875,0.20624136924743652
1707576730348657700,1.01365771484375,-0.20728206634521484,0.0012803077697753906,0.3535492420196533
1707576730367550200,1.03255029296875,-0.24412822723388672,0.12836885452270508,0.6076413989067078
1707576730386442800,1.05144287109375,-0.5031309127807617,0.3009657859802246,0.6529679298400879
1707576730405335000,1.0703349609375,-0.46662235260009766,0.5332834720611572,0.9589977264404297
1707576730424227600,1.0892275390625,-0.19050121307373047,0.7783122062683105,1.5198193788528442
1707576730443120000,1.1081201171875,0.09705162048339844,0.5378561019897461,1.5845084190368652
1707576730462012400,1.127012451171875,0.9028301239013672,0.3020339012145996,1.0535509586334229
1707576730480905000,1.145905029296875,1.5696144104003906,0.5990254878997803,0.40526342391967773
1707576730499797500,1.164797607421875,1.8938589096069336,0.9198074340820312,0.2879300117492676
1707576730518690000,1.18368994140625,1.5884532928466797,0.7422552108764648,0.5855331420898438
1707576730537582300,1.202582275390625,1.568760871887207,0.7366073131561279,1.1036596298217773
1707576730556475000,1.221474853515625,1.1001214981079102,0.749770998954773,0.7659397125244141
1707576730575367400,1.240367431640625,-0.48439979553222656,-0.2455594539642334,-0.7351479530334473
1707576730594260000,1.259260009765625,-1.0224933624267578,-1.353373646736145,-2.004822254180908
1707576730613152300,1.27815234375,0.44948577880859375,-1.2633872032165527,-2.9537160396575928
1707576730632044800,1.297044921875,1.6521453857421875,-1.1361446380615234,-3.1576991081237793
1707576730650937300,1.315937255859375,0.8842391967773438,-1.4776990413665771,-2.288829803466797
1707576730669830000,1.334829833984375,0.6407175064086914,-1.9160125255584717,-1.6938936710357666
1707576730688722200,1.35372216796875,1.1454744338989258,-1.6156995296478271,-1.0780432224273682
1707576730707614700,1.37261474609375,2.6785755157470703,-1.59804105758667,-1.2528512477874756
1707576730726507300,1.39150732421875,4.72963809967041,-1.7270183563232422,-1.1915639638900757
1707576730745399800,1.41039990234375,5.701493263244629,-2.489132881164551,-0.8633120059967041
1707576730764292000,1.4292919921875,5.652341842651367,-3.9745664596557617,-1.9100557565689087
1707576730783184600,1.4481845703125,5.8065900802612305,-3.7391164302825928,-3.668203830718994
1707576730802077200,1.4670771484375,4.407660484313965,-3.0809059143066406,-4.834927558898926
1707576730820969500,1.485969482421875,1.9626939296722412,-3.1802573204040527,-3.2979564666748047
1707576730839862000,1.504862060546875,-0.9409247040748596,-2.2686333656311035,-1.3491640090942383
1707576730858754600,1.523754638671875,-0.040215082466602325,-2.720017433166504,-2.120701313018799
1707576730877647000,1.542647216796875,2.676858425140381,-2.353311061859131,-3.1789159774780273
1707576730896539400,1.561539306640625,4.176156044006348,-2.9437456130981445,-3.420921802520752
1707576730915432000,1.580431884765625,4.245579242706299,-2.8943357467651367,-3.844571828842163
1707576730934324500,1.599324462890625,3.3466439247131348,-2.6916160583496094,-4.249495983123779
1707576730953216800,1.618216796875,1.9230906963348389,-2.332897186279297,-4.7880964279174805
1707576730972109300,1.637109375,-0.07264137268066406,-2.0397982597351074,-5.41322660446167
1707576730991001900,1.656001953125,-2.290497303009033,-1.319033145904541,-5.831714153289795
1707576731009894400,1.674894287109375,-3.781416416168213,-0.7939605712890625,-4.98130989074707
1707576731028786700,1.69378662109375,-4.809174537658691,-0.49836206436157227,-3.5947201251983643
1707576731047679200,1.71267919921875,-4.1407341957092285,-0.38541650772094727,-1.7450371980667114
1707576731066571800,1.73157177734375,-3.7291531562805176,-0.24796581268310547,-0.9867608547210693
1707576731085464000,1.750464111328125,-3.564779281616211,-0.461306095123291,-2.3647584915161133
1707576731104356600,1.769356689453125,-3.756988048553467,-1.133516788482666,-4.8964691162109375
1707576731123249200,1.788249267578125,-3.6144838333129883,-2.3489251136779785,-7.249838352203369
1707576731142141700,1.8071416015625,-1.7859511375427246,-3.2418150901794434,-9.123298645019531
1707576731161034000,1.826033935546875,-3.4738340377807617,-4.5154337882995605,-9.550910949707031
1707576731179926500,1.844926513671875,-3.9277453422546387,-6.346318244934082,-10.544150352478027
1707576731198819000,1.863819091796875,0.9108190536499023,-7.7068071365356445,-12.187590599060059
1707576731217711400,1.88271142578125,9.140480041503906,-7.529077053070068,-9.303712844848633
1707576731236604000,1.90160400390625,13.206600189208984,-4.964412212371826,-4.4344329833984375
1707576731255496400,1.920496337890625,11.884977340698242,-2.844370126724243,-0.7601597309112549
1707576731274388700,1.939388671875,7.805718421936035,-1.6603583097457886,0.8863615989685059
1707576731293281300,1.95828125,4.838237762451172,-1.1595444679260254,1.4108153581619263
1707576731312173800,1.977173828125,3.716841697692871,-0.3680323362350464,2.9922938346862793
1707576731331066400,1.99606640625,3.9757070541381836,0.396298885345459,3.336599826812744
1707576731349958700,2.014958740234375,3.329768180847168,0.3803532123565674,1.8134567737579346
1707576731368851200,2.033851318359375,1.5344667434692383,-0.03272736072540283,-0.017578482627868652
1707576731387743700,2.05274365234375,0.46723270416259766,-0.22423851490020752,-0.6483359336853027
1707576731406636000,2.071635986328125,0.8126316070556641,-0.3572593927383423,-0.1546492576599121
1707576731425528600,2.090528564453125,0.5160732269287109,-0.35976314544677734,-0.39596933126449585
1707576731444421000,2.109421142578125,-0.01572418212890625,-0.4501631259918213,-0.9759881496429443
1707576731463313700,2.128313720703125,-0.25431251525878906,-0.4681673049926758,-1.1278798580169678
1707576731482206000,2.1472060546875,-0.13071346282958984,-0.5172982215881348,-0.31355947256088257
1707576731501098500,2.166098388671875,0.630213737487793,-0.29691481590270996,0.45570772886276245
1707576731519991000,2.184990966796875,1.1330223083496094,-0.19339799880981445,0.5936494469642639
1707576731538883300,2.20388330078125,0.7754678726196289,-0.15225553512573242,0.30920910835266113
1707576731557776000,2.22277587890625,0.2375783920288086,0.0061762332916259766,0.06990456581115723
1707576731576668400,2.24166845703125,-0.018876075744628906,0.0568084716796875,0.047568559646606445
1707576731595561000,2.26056103515625,0.03780651092529297,0.09379363059997559,0.40944039821624756
1707576731614453200,2.279453369140625,-0.08492183685302734,0.1911299228668213,0.5221984386444092
1707576731633345800,2.298345703125,-0.3277254104614258,0.14121174812316895,0.170343279838562
1707576731652238300,2.31723828125,-0.2376394271850586,0.05416703224182129,-0.1297076940536499
1707576731671131000,2.336130859375,-0.23682022094726562,0.02787494659423828,-0.020030617713928223
1707576731690023200,2.355023193359375,-0.39914608001708984,0.06382179260253906,0.1758434772491455
1707576731708915700,2.373915771484375,-0.3650798797607422,0.041300296783447266,0.16981089115142822
1707576731727808300,2.392808349609375,-0.11717510223388672,0.01539158821105957,0.24110174179077148
1707576731746700500,2.411700439453125,-0.05045032501220703,-0.006908893585205078,0.2699853181838989
1707576731765593000,2.430593017578125,-0.13324546813964844,0.0235595703125,0.18355202674865723
1707576731784485600,2.449485595703125,0.0031557083129882812,-0.025745153427124023,0.12631702423095703
1707576731803378200,2.468378173828125,0.05056476593017578,0.0036084651947021484,0.2110525369644165
1707576731822270500,2.4872705078125,-0.05933570861816406,0.01007223129272461,0.0755767822265625
1707576731841163000,2.5061630859375,-0.02054309844970703,-0.029653549194335938,-0.0761955976486206
1707576731860055600,2.5250556640625,0.04825878143310547,-0.05183124542236328,-0.05626201629638672
1707576731878948000,2.543947998046875,0.07147407531738281,-0.032019615173339844,0.02254641056060791
1707576731897840400,2.56284033203125,0.18460655212402344,-0.08740949630737305,-0.10059452056884766
1707576731916733000,2.58173291015625,0.22969341278076172,-0.1264805793762207,-0.1824549436569214
1707576731935625500,2.60062548828125,0.16742897033691406,-0.09548044204711914,0.058983683586120605
1707576731954517800,2.619517822265625,0.18799972534179688,-0.04489707946777344,0.21813786029815674
1707576731973410300,2.638410400390625,0.1880655288696289,-0.03558087348937988,0.11489415168762207
1707576731992302800,2.657302734375,0.04754829406738281,-0.06387639045715332,-0.12750041484832764
1707576732011195400,2.6761953125,0.08510112762451172,-0.03755974769592285,-0.17466270923614502
1707576732030087700,2.695087646484375,0.17777442932128906,-0.03100442886352539,-0.025601625442504883
1707576732048980200,2.713980224609375,0.2295360565185547,-0.023617029190063477,0.0786508321762085
1707576732067872800,2.732872802734375,0.0793619155883789,0.024803876876831055,-0.10733485221862793
1707576732086765300,2.751765380859375,-0.09059810638427734,-0.0206756591796875,-0.10735809803009033
1707576732105657600,2.77065771484375,-0.23920726776123047,-0.032894134521484375,0.14152371883392334
1707576732124550100,2.789550048828125,-0.16316795349121094,0.007947921752929688,0.04669153690338135
1707576732143442700,2.808442626953125,0.04309272766113281,-0.06782007217407227,-0.0448760986328125
1707576732162335000,2.8273349609375,0.10817337036132812,-0.08612561225891113,-0.22438347339630127
1707576732181227500,2.8462275390625,-0.13039875030517578,-0.11393451690673828,-0.05643141269683838
1707576732200120000,2.8651201171875,-0.24021148681640625,-0.020215511322021484,0.07882845401763916
1707576732219012600,2.8840126953125,-0.05719470977783203,-0.048218727111816406,0.18382275104522705
1707576732237905000,2.90290478515625,0.014987945556640625,-0.0040302276611328125,0.06482970714569092
1707576732256797400,2.92179736328125,-0.21813201904296875,0.02037334442138672,-0.01687324047088623
1707576732275690000,2.94068994140625,-0.39624500274658203,0.04087638854980469,-0.04244089126586914
1707576732294582300,2.959582275390625,-0.3271141052246094,0.01630115509033203,-0.10471653938293457
1707576732313474800,2.978474853515625,-0.17909812927246094,0.007201194763183594,-0.06515741348266602
1707576732332367400,2.997367431640625,-0.039656639099121094,0.005352973937988281,-0.004586696624755859
1707576732351259600,3.016259765625,0.07766056060791016,-0.013448238372802734,-0.0046225786209106445
1707576732370152200,3.035152099609375,0.2554616928100586,-0.04227447509765625,0.001211404800415039
1707576732389044700,3.054044677734375,0.27320384979248047,-0.023208141326904297,-0.007226109504699707
1707576732407937300,3.072937255859375,0.10907840728759766,-0.025598526000976562,-0.08139634132385254
1707576732426829600,3.09182958984375,0.04636859893798828,-0.012433528900146484,0.040174245834350586
1707576732445722000,3.11072216796875,0.02736949920654297,0.05337333679199219,0.1585177183151245
1707576732464614700,3.12961474609375,0.07518577575683594,0.01980113983154297,0.05830562114715576
1707576732483507200,3.148507080078125,0.16885089874267578,-0.025483131408691406,-0.06741833686828613
1707576732502399500,3.1673994140625,0.13829898834228516,-0.048605918884277344,-0.028850555419921875
1707576732521292000,3.1862919921875,0.14849185943603516,-0.029186725616455078,0.04913616180419922
1707576732540184600,3.2051845703125,0.10607147216796875,0.0014863014221191406,0.1125720739364624
1707576732559076900,3.224076904296875,0.007973670959472656,-0.040276527404785156,0.006965517997741699
1707576732577969400,3.242969482421875,-0.018067359924316406,-0.040506839752197266,-0.05051290988922119
1707576732596862000,3.261862060546875,-0.0001888275146484375,-0.026969432830810547,-0.06635892391204834
1707576732615754500,3.28075439453125,0.02437114715576172,-0.02346515655517578,-0.10270380973815918
1707576732634646800,3.299646728515625,0.15795326232910156,-0.019464492797851562,-0.03238952159881592
1707576732653539300,3.318539306640625,0.16686630249023438,-0.00534820556640625,0.05332052707672119
1707576732672431900,3.337431884765625,0.17483234405517578,0.00006103515625,0.0202484130859375
1707576732691324200,3.35632421875,0.11057376861572266,-0.015861034393310547,-0.036246538162231445
1707576732710216700,3.375216796875,0.022897720336914062,-0.00920248031616211,0.11515772342681885
1707576732729109200,3.394109130859375,-0.06987571716308594,0.03138399124145508,0.17300856113433838
1707576732748001800,3.413001708984375,0.037985801696777344,0.05828666687011719,0.06298196315765381
1707576732766894000,3.43189404296875,0.023201942443847656,-0.017512798309326172,-0.12584948539733887
1707576732785786600,3.45078662109375,0.09111785888671875,-0.06544208526611328,0.06754100322723389
1707576732804679200,3.46967919921875,0.096832275390625,0.08531522750854492,0.2656843662261963
1707576732823571500,3.488571533203125,0.11015129089355469,0.0524144172668457,0.17547249794006348
1707576732842464000,3.507464111328125,0.12053585052490234,-0.09285974502563477,-0.02452230453491211
1707576732861356500,3.5263564453125,-0.3797769546508789,-0.06760454177856445,-0.26409876346588135
1707576732880249000,3.5452490234375,-0.17371654510498047,-0.07650423049926758,-0.008527874946594238
1707576732899141400,3.564141357421875,-0.02400493621826172,0.0493311882019043,-0.025382280349731445
1707576732918034000,3.583033935546875,0.5954523086547852,-0.00864267349243164,0.20657944679260254
1707576732936926500,3.601926513671875,0.09386062622070312,-0.0697636604309082,-0.1064920425415039
1707576732955818800,3.62081884765625,0.09065628051757812,-0.023547649383544922,-0.012459397315979004
1707576732974711300,3.639711181640625,0.49456214904785156,-0.22350645065307617,0.1577308177947998
1707576732993603800,3.658603759765625,0.32001686096191406,-0.04828596115112305,-0.09685909748077393
1707576733012496100,3.67749609375,0.25121116638183594,-0.1067953109741211,-0.13196027278900146
1707576733031388700,3.696388671875,0.07954692840576172,-0.13433361053466797,-0.07615649700164795
1707576733050281200,3.71528125,-0.1705923080444336,-0.06822586059570312,-0.08315736055374146
1707576733069173800,3.734173828125,-0.08911705017089844,-0.15366697311401367,0.1620396375656128
1707576733088066000,3.753066162109375,0.3407449722290039,-0.09438562393188477,0.41198575496673584
1707576733106958600,3.77195849609375,0.552647590637207,-0.1289043426513672,0.2322116494178772
1707576733125851100,3.79085107421875,0.6613149642944336,-0.14926481246948242,-0.035541653633117676
1707576733144743400,3.809743408203125,1.0264596939086914,-0.2192521095275879,0.056384265422821045
1707576733163636000,3.828635986328125,1.610468864440918,-0.40119409561157227,-0.043962955474853516
1707576733182528500,3.847528564453125,2.917384147644043,-0.7154979705810547,-0.5921743512153625
1707576733201421000,3.866421142578125,4.068390846252441,-1.0897927284240723,-0.5958989858627319
1707576733220313300,3.885313232421875,4.0673828125,-1.3029961585998535,0.49394553899765015
1707576733239206000,3.904205810546875,3.53275203704834,-1.26387357711792,1.2507107257843018
1707576733258098400,3.923098388671875,1.041114330291748,-1.4423093795776367,1.1853992938995361
1707576733276990700,3.94199072265625,-2.576333999633789,-1.0761032104492188,1.102938175201416
1707576733295883300,3.96088330078125,-4.905620574951172,-0.14519691467285156,1.1362223625183105
1707576733314775800,3.97977587890625,-5.539641857147217,0.4686427116394043,1.6296398639678955
1707576733333668400,3.99866845703125,-5.535808563232422,0.8928475379943848,1.6072558164596558
1707576733352560600,4.017560546875,-5.907724380493164,1.1411304473876953,1.8607730865478516
1707576733371453200,4.036453125,-6.870970726013184,1.0266013145446777,1.570775032043457
1707576733390345700,4.055345703125,-8.006640434265137,0.5460000038146973,1.3794890642166138
1707576733409238000,4.074238037109375,-8.55571174621582,0.10841560363769531,1.1498420238494873
1707576733428130600,4.093130615234375,-8.034071922302246,-0.41007041931152344,0.7324962615966797
1707576733447023000,4.112023193359375,-6.230339050292969,-1.6929259300231934,0.9002722501754761
1707576733465915600,4.13091552734375,-3.217014789581299,-2.4037511348724365,0.8861711025238037
1707576733484808000,4.149807861328125,-0.5523099899291992,-2.910224676132202,0.37844181060791016
1707576733503700500,4.168700439453125,1.952742576599121,-3.230555534362793,-0.8903250694274902
1707576733522593000,4.187593017578125,4.725878715515137,-3.5174760818481445,-2.386890411376953
1707576733541485300,4.2064853515625,7.554359436035156,-3.5502817630767822,-4.289510726928711
1707576733560377900,4.2253779296875,7.397891998291016,-2.943352222442627,-5.2274699211120605
1707576733579270400,4.2442705078125,4.887640953063965,-1.750377893447876,-3.7319183349609375
1707576733598163000,4.263162841796875,3.7271060943603516,-0.5935182571411133,-1.3197312355041504
1707576733617055200,4.28205517578125,3.32155179977417,0.4301677942276001,-0.3591470718383789
1707576733635947800,4.30094775390625,3.328317642211914,1.0831435918807983,-0.17853069305419922
1707576733654840300,4.31984033203125,3.476296901702881,1.5324187278747559,-0.1224508285522461
1707576733673732600,4.338732666015625,2.460219383239746,1.1827250719070435,0.07760810852050781
1707576733692625200,4.357625244140625,0.6271324157714844,1.1123007535934448,0.7181873321533203
1707576733711517700,4.376517578125,-0.570225715637207,0.9666881561279297,1.7296133041381836
1707576733730410000,4.395409912109375,-1.2337117195129395,0.6975705623626709,1.9031519889831543
1707576733749302500,4.414302490234375,-1.234607219696045,0.46840858459472656,1.1220698356628418
1707576733768195000,4.433195068359375,-1.5179815292358398,-0.13232755661010742,0.2305893898010254
1707576733787087600,4.452087646484375,-1.8208651542663574,-0.147216796875,-1.095932960510254
1707576733805980000,4.47097998046875,-2.0233640670776367,-0.6148402690887451,-1.5511474609375
1707576733824872400,4.48987255859375,-2.4938220977783203,-0.5784833431243896,-1.045945167541504
1707576733843765000,4.508764892578125,-3.394376277923584,-0.6719765663146973,-0.022670626640319824
1707576733862657300,4.5276572265625,-3.046431541442871,-0.7445182800292969,0.1702938675880432
1707576733881549800,4.5465498046875,-1.9787111282348633,-0.6704902648925781,0.09034043550491333
1707576733900442400,4.5654423828125,-1.171137809753418,-0.2447500228881836,0.010713696479797363
1707576733919335000,4.5843349609375,-0.6543130874633789,0.03182649612426758,0.08649635314941406
1707576733938227200,4.603227294921875,-0.6494026184082031,0.062285661697387695,0.2943125367164612
1707576733957119700,4.62211962890625,-0.26755237579345703,0.20278310775756836,-0.13103705644607544
1707576733976012300,4.64101220703125,0.5952053070068359,-0.054273128509521484,-0.5372559428215027
1707576733994904600,4.659904541015625,1.2822751998901367,0.5669605731964111,-0.9709303379058838
1707576734013797000,4.678797119140625,0.2875051498413086,0.30387043952941895,0.09806311130523682
1707576734032689700,4.697689697265625,-1.8533782958984375,0.9502308368682861,1.1542248725891113
1707576734051582000,4.71658203125,-1.4330110549926758,0.1777818202972412,0.8195627331733704
1707576734070474500,4.735474609375,0.01731109619140625,0.16573023796081543,1.1148278713226318
1707576734089367000,4.754366943359375,1.6759510040283203,0.06117677688598633,1.0909935235977173
1707576734108259600,4.773259521484375,1.4966773986816406,0.3354952335357666,0.4386287331581116
1707576734127151900,4.79215185546875,0.9118471145629883,0.09148216247558594,0.07682186365127563
1707576734146044400,4.81104443359375,1.168558120727539,0.03227496147155762,-0.29040324687957764
1707576734164937000,4.82993701171875,2.1311750411987305,0.07287287712097168,-0.49235105514526367
1707576734183829200,4.848829345703125,2.704318046569824,0.056730031967163086,-0.9278475046157837
1707576734202721800,4.8677216796875,2.114229202270508,-0.4505457878112793,-0.7150101661682129
1707576734221614300,4.8866142578125,1.3542346954345703,-0.8732917308807373,-0.5505141615867615
1707576734240507000,4.9055068359375,0.6999444961547852,-1.7347838878631592,0.3190516531467438
1707576734259399200,4.924399169921875,0.5898828506469727,-1.0107696056365967,0.3362627625465393
1707576734278291700,4.943291748046875,-0.23563766479492188,-0.4051234722137451,-0.41105037927627563
1707576734297184300,4.962184326171875,-0.6066684722900391,-0.8186116218566895,-2.096045970916748
1707576734316076800,4.981076904296875,-1.5856456756591797,0.3097681999206543,-1.5753662586212158
1707576734334969000,4.999968994140625,-0.9421176910400391,1.2747406959533691,-1.8505734205245972
1707576734353861600,5.018861572265625,-0.8702707290649414,1.4062423706054688,-2.083787679672241
1707576734372754200,5.037754150390625,-1.0424575805664062,1.552095890045166,-1.7132482528686523
1707576734391646500,5.056646484375,-0.7492380142211914,1.089585781097412,-0.7992648482322693
1707576734410539000,5.0755390625,0.016082763671875,-0.10742473602294922,0.6019554734230042
1707576734429431600,5.094431640625,0.17607593536376953,-0.9050240516662598,1.4756910800933838
1707576734448323800,5.11332373046875,-0.5599508285522461,-0.8372101783752441,1.0032320022583008
1707576734467216400,5.13221630859375,-1.503199577331543,-0.41976451873779297,0.17454314231872559
1707576734486109000,5.15110888671875,-1.2840290069580078,-0.7180547714233398,-0.4061981439590454
1707576734505001500,5.17000146484375,-0.6717863082885742,-1.60933256149292,0.2563791275024414
1707576734523893800,5.188893798828125,-0.5410652160644531,-1.4610364437103271,0.3203302025794983
1707576734542786300,5.207786376953125,-0.7460360527038574,-0.5828347206115723,-0.16508424282073975
1707576734561678800,5.226678955078125,-0.3595314025878906,-0.18976688385009766,-0.5221138596534729
1707576734580571100,5.245571044921875,0.3351411819458008,-0.2788839340209961,-0.5886209011077881
1707576734599463700,5.264463623046875,0.8173484802246094,-0.11671972274780273,-0.37618470191955566
1707576734618356200,5.283356201171875,0.9135274887084961,0.23624229431152344,-0.25388842821121216
1707576734637248800,5.302248779296875,0.6250152587890625,0.48879480361938477,0.1559426635503769
1707576734656141000,5.32114111328125,-0.0031795501708984375,0.5230827331542969,0.6757078766822815
1707576734675033600,5.34003369140625,-0.41452693939208984,0.6167612075805664,1.191496729850769
1707576734693926100,5.358926025390625,-0.14415740966796875,0.5956869125366211,0.776892900466919
1707576734712818400,5.377818359375,0.01930522918701172,0.2400670051574707,0.0850197821855545
1707576734731711000,5.3967109375,0.13141918182373047,0.13068866729736328,-0.2636500298976898
1707576734750603500,5.415603515625,0.18958091735839844,-0.10134649276733398,-0.08449748158454895
1707576734769496000,5.43449609375,0.033130645751953125,-0.14345788955688477,-0.23272067308425903
1707576734788388400,5.453388427734375,-0.0069484710693359375,-0.3127913475036621,-0.18581819534301758
1707576734807281000,5.472281005859375,-0.2889747619628906,-0.27785158157348633,-0.3989517092704773
1707576734826173400,5.49117333984375,-0.3551597595214844,-0.0905156135559082,-0.4255389869213104
1707576734845065700,5.510065673828125,-0.24675273895263672,0.05868244171142578,-0.21123957633972168
1707576734863958300,5.528958251953125,-0.23302555084228516,0.022414207458496094,0.3740449547767639
1707576734882850800,5.547850830078125,-0.40904998779296875,0.008898735046386719,0.565162718296051
1707576734901743400,5.566743408203125,-0.6623587608337402,0.06458854675292969,0.3289813697338104
1707576734920635600,5.5856357421875,-0.7402744293212891,0.24076271057128906,0.1594696342945099
1707576734939528200,5.604528076171875,-0.6761770248413086,0.394075870513916,0.13283368945121765
1707576734958420700,5.623420654296875,-0.3404054641723633,0.35610008239746094,0.1592259407043457
1707576734977313000,5.64231298828125,0.11353588104248047,0.2782912254333496,0.17804232239723206
1707576734996205600,5.66120556640625,0.3616752624511719,0.3188619613647461,0.25968536734580994
1707576735015098000,5.68009814453125,0.5982875823974609,0.3145298957824707,0.25465890765190125
1707576735033990700,5.69899072265625,0.5536279678344727,0.15604257583618164,0.11221551895141602
1707576735052883000,5.717883056640625,0.32523059844970703,0.07326602935791016,-0.2641054391860962
1707576735071775500,5.736775390625,0.04172706604003906,-0.03361368179321289,-0.5431723594665527
1707576735090668000,5.75566796875,-0.116302490234375,-0.1501302719116211,-0.47931769490242004
1707576735109560300,5.774560302734375,-0.14986324310302734,-0.21427440643310547,-0.37973544001579285
1707576735128452900,5.793452880859375,-0.21744346618652344,-0.27300262451171875,-0.1807178556919098
1707576735147345400,5.812345458984375,-0.25417041778564453,-0.24160432815551758,-0.09065559506416321
1707576735166237700,5.83123779296875,-0.3026609420776367,-0.17908000946044922,0.07840654253959656
1707576735185130200,5.850130126953125,-0.29109954833984375,-0.08415746688842773,0.29005005955696106
1707576735204022800,5.869022705078125,-0.1526937484741211,0.03438377380371094,0.30274492502212524
1707576735222915300,5.887915283203125,-0.020387649536132812,0.08414697647094727,0.39366021752357483
1707576735241807600,5.9068076171875,0.07489585876464844,0.08527517318725586,0.4259224236011505
1707576735260700200,5.9257001953125,0.11792469024658203,0.07098197937011719,0.3509649932384491
1707576735279592700,5.9445927734375,-0.012616157531738281,0.052437782287597656,0.3547653555870056
1707576735298485000,5.963485107421875,-0.1716175079345703,0.1120595932006836,0.30643990635871887
1707576735317377500,5.98237744140625,-0.2560453414916992,0.18944597244262695,0.08825782686471939
1707576735336270000,6.00127001953125,-0.13672733306884766,0.26346635818481445,-0.3247680068016052
1707576735355162600,6.02016259765625,-0.06632137298583984,0.04628419876098633,-0.10955999791622162
1707576735374055000,6.039054931640625,0.09616279602050781,0.01613759994506836,-0.20058134198188782
1707576735392947500,6.057947509765625,0.10264301300048828,0.019439220428466797,-0.2793404161930084
1707576735411840000,6.076840087890625,-0.021800994873046875,0.007658481597900391,-0.2423572540283203
1707576735430732300,6.095732177734375,-0.08371543884277344,-0.06834220886230469,-0.29897522926330566
1707576735449624800,6.114624755859375,-0.026268959045410156,-0.07735204696655273,-0.3294370174407959
1707576735468517400,6.133517333984375,0.011038780212402344,-0.0929422378540039,-0.2812483310699463
1707576735487410000,6.152409912109375,-0.020551681518554688,-0.12063741683959961,-0.3595874309539795
1707576735506302200,6.17130224609375,-0.09363365173339844,-0.0821990966796875,-0.4080183506011963
1707576735525194800,6.19019482421875,-0.1846294403076172,-0.029335975646972656,-0.38243570923805237
1707576735544087300,6.20908740234375,-0.1875782012939453,0.06190824508666992,-0.30307114124298096
1707576735562979600,6.2279794921875,-0.15518951416015625,0.06213855743408203,-0.1963503211736679
1707576735581872000,6.2468720703125,-0.14172601699829102,0.004866600036621094,-0.05138927325606346
1707576735600764700,6.2657646484375,-0.1495823860168457,-0.030877113342285156,0.09256334602832794
1707576735619657200,6.2846572265625,-0.14750289916992188,-0.0051422119140625,0.11518558859825134
1707576735638549500,6.303549560546875,-0.25672292709350586,-0.03194379806518555,0.15535706281661987
1707576735657442000,6.322442138671875,-0.37522220611572266,0.0030736923217773438,0.06307229399681091
1707576735676334600,6.34133447265625,-0.2950448989868164,0.032129764556884766,0.17349079251289368
1707576735695227000,6.360226806640625,-0.13707494735717773,0.07803010940551758,0.19522827863693237
1707576735714119400,6.379119384765625,-0.016817092895507812,0.0804438591003418,0.21319198608398438
1707576735733012000,6.398011962890625,-0.07393026351928711,-0.019731521606445312,0.22957944869995117
1707576735751904300,6.416904296875,-0.2669038772583008,0.19457101821899414,-0.0670735239982605
1707576735770796800,6.435796875,-0.3475937843322754,-0.009064197540283203,0.3360828161239624
1707576735789689300,6.454689453125,-0.24068546295166016,-0.09900140762329102,0.390067994594574
1707576735808582000,6.473581787109375,-0.044234275817871094,-0.047109127044677734,0.26761358976364136
1707576735827474200,6.49247412109375,-0.02997112274169922,0.1227564811706543,0.048803940415382385
1707576735846366700,6.51136669921875,0.12971210479736328,-0.05495262145996094,0.30583369731903076
1707576735865259300,6.53025927734375,0.3865375518798828,-0.2020416259765625,0.24864926934242249
1707576735884151600,6.549151611328125,0.42635250091552734,-0.07343435287475586,0.017248645424842834
1707576735903044000,6.568044189453125,0.24895095825195312,-0.06390047073364258,-0.07501253485679626
1707576735921936600,6.5869365234375,-0.10990524291992188,-0.002251148223876953,-0.15502889454364777
1707576735940829200,6.6058291015625,-0.5200138092041016,0.11359739303588867,-0.35495224595069885
1707576735959721500,6.624721435546875,-0.6714496612548828,0.026408672332763672,-0.2427312731742859
1707576735978614000,6.643614013671875,-0.7007851600646973,0.0872964859008789,-0.41782477498054504
1707576735997506600,6.662506591796875,-0.6541566848754883,0.15048646926879883,-0.5498079657554626
1707576736016398800,6.68139892578125,-0.5478420257568359,0.13582658767700195,-0.5183218717575073
1707576736035291400,6.70029150390625,-0.4539198875427246,0.1530599594116211,-0.4353882074356079
1707576736054184000,6.719183837890625,-0.4325389862060547,0.17517566680908203,-0.31405109167099
1707576736073076500,6.738076416015625,-0.4177131652832031,0.13342571258544922,-0.20412978529930115
1707576736091968800,6.75696875,-0.3672609329223633,0.05056285858154297,0.026097267866134644
1707576736110861300,6.775861328125,-0.19555950164794922,-0.1003580093383789,0.15332815051078796
1707576736129753900,6.79475390625,0.1760997772216797,-0.21906042098999023,-0.0005946457386016846
1707576736148646100,6.813646240234375,0.6041860580444336,-0.2933464050292969,-0.10220646858215332
1707576736167538700,6.83253857421875,0.7604331970214844,-0.3242158889770508,-0.1653851419687271
1707576736186431200,6.85143115234375,0.7534008026123047,-0.3601222038269043,-0.1667945384979248
1707576736205323800,6.87032373046875,1.0376062393188477,-0.1422429084777832,-0.37472814321517944
1707576736224216000,6.889216064453125,1.4713945388793945,-0.04703378677368164,-0.5400081872940063
1707576736243108600,6.908108642578125,1.5053319931030273,-0.20330357551574707,-0.49763864278793335
1707576736262001200,6.927001220703125,1.0800962448120117,-0.40013933181762695,-0.19965170323848724
1707576736280893400,6.9458935546875,0.8455810546875,-0.4521517753601074,-0.47829627990722656
1707576736299786000,6.964785888671875,0.5879220962524414,-0.6506922245025635,-0.7146677374839783
1707576736318678500,6.983678466796875,0.8876276016235352,-0.4146287441253662,-0.6174372434616089
1707576736337571000,7.002571044921875,1.0626440048217773,-0.12099885940551758,-0.14417698979377747
1707576736356463400,7.02146337890625,0.7422647476196289,-0.08134603500366211,0.22057440876960754
1707576736375356000,7.04035595703125,0.2281322479248047,-0.02792978286743164,0.17329543828964233
1707576736394248400,7.05924853515625,-0.0491943359375,-0.10933113098144531,0.08920258283615112
1707576736413140700,7.078140625,-0.3445901870727539,-0.07321834564208984,0.10781455039978027
1707576736432033300,7.097033203125,-0.699030876159668,-0.1389760971069336,0.08705335855484009
1707576736450925800,7.11592578125,-0.8426952362060547,-0.24355316162109375,0.37529653310775757
1707576736469818000,7.134818115234375,0.5052413940429688,-0.09119749069213867,2.6195168495178223
1707576736488710700,7.153710693359375,0.2433156967163086,0.17243623733520508,1.5601003170013428
1707576736507603200,7.172603271484375,-0.2984304428100586,0.9613370895385742,1.032886266708374
1707576736526495700,7.191495849609375,-0.7039461135864258,0.7790942192077637,0.9615173935890198
1707576736545388000,7.210387939453125,0.18284893035888672,-0.04543113708496094,-0.08796966075897217
1707576736564280600,7.229280517578125,1.0682640075683594,-0.39130210876464844,-0.7688748836517334
1707576736583173000,7.248173095703125,1.1252107620239258,0.16747760772705078,-0.9553255438804626
1707576736602065400,7.2670654296875,0.9705238342285156,0.5930347442626953,-1.3184998035430908
1707576736620958000,7.2859580078125,0.49920177459716797,0.061116695404052734,-0.6982366442680359
1707576736639850500,7.3048505859375,-0.2732563018798828,-0.2843761444091797,-0.3775140345096588
1707576736658743000,7.323742919921875,-0.8043336868286133,-0.4918370246887207,0.6694214940071106
1707576736677635300,7.34263525390625,-0.7089872360229492,-0.26047182083129883,1.5947837829589844
1707576736696528000,7.36152783203125,-0.11818599700927734,0.06778287887573242,0.8450039029121399
1707576736715420400,7.38042041015625,0.4649972915649414,0.008011817932128906,-0.7052801251411438
1707576736734312700,7.399312744140625,0.39072370529174805,-0.17091703414916992,-0.5961039662361145
1707576736753205200,7.418205322265625,-0.20827054977416992,-0.0006365776062011719,-0.6134601831436157
1707576736772097800,7.437097900390625,0.24735164642333984,0.25986480712890625,-0.6912587285041809
1707576736790990300,7.455990234375,-0.9862895011901855,0.328305721282959,-0.43415558338165283
1707576736809882600,7.474882568359375,-2.42919921875,-0.3811459541320801,-1.1123723983764648
1707576736828775200,7.493775146484375,-2.7458534240722656,-0.049030303955078125,-0.6350690126419067
1707576736847667700,7.512667724609375,-1.0903959274291992,1.1683053970336914,-2.3963088989257812
1707576736866560000,7.53156005859375,0.6741237640380859,2.2674155235290527,-3.7627663612365723
1707576736885452500,7.55045263671875,1.7879962921142578,2.856052875518799,-4.136602401733398
1707576736904345000,7.569344970703125,2.177433967590332,3.015254020690918,-3.7541892528533936
1707576736923237600,7.588237548828125,1.8692340850830078,2.6307170391082764,-3.083972454071045
1707576736942130000,7.6071298828125,1.103398323059082,2.022273302078247,-2.393169641494751
1707576736961022500,7.6260224609375,0.24684524536132812,1.280533790588379,-1.861936092376709
1707576736979915000,7.6449150390625,-0.9069972038269043,0.4370157718658447,-1.6761457920074463
1707576736998807600,7.6638076171875,-1.8868732452392578,-0.11548542976379395,-1.1441781520843506
1707576737017699800,7.682699951171875,-2.181407928466797,-0.793811559677124,-0.6805515289306641
1707576737036592400,7.70159228515625,-2.241881847381592,-1.195096492767334,0.25415921211242676
1707576737055485000,7.72048486328125,-2.1837453842163086,-1.3752095699310303,0.7868969440460205
1707576737074377500,7.73937744140625,-2.0415029525756836,-1.5858746767044067,0.9300806522369385
1707576737093269800,7.758269775390625,-1.7214393615722656,-1.9937007427215576,1.3247041702270508
1707576737112162300,7.777162353515625,-0.8569846153259277,-2.191929817199707,2.3509786128997803
1707576737131054800,7.796054931640625,0.08783626556396484,-2.5566959381103516,2.63169527053833
1707576737149947400,7.814947509765625,0.5774374008178711,-2.8690292835235596,3.055133819580078
1707576737168839700,7.833839599609375,1.0101299285888672,-2.71948504447937,3.4090707302093506
1707576737187732200,7.852732177734375,1.4332666397094727,-2.37283992767334,3.644561290740967
1707576737206624800,7.871624755859375,2.6765966415405273,-1.6298454999923706,2.8576583862304688
1707576737225517300,7.890517333984375,4.556282043457031,-0.9567413330078125,2.805171012878418
1707576737244409600,7.90940966796875,5.528207778930664,-0.7208178043365479,3.579033136367798
1707576737263302100,7.92830224609375,4.1145734786987305,-0.7765381336212158,2.3839330673217773
1707576737282194700,7.947194580078125,2.851531982421875,-1.3552768230438232,1.6323126554489136
1707576737301087000,7.9660869140625,0.819056510925293,-1.598278522491455,0.8278564214706421
1707576737319979500,7.9849794921875,-1.4963068962097168,-1.089860439300537,0.23170018196105957
1707576737338872000,8.0038720703125,-3.6317787170410156,-0.26386547088623047,-0.25076985359191895
1707576737357764600,8.0227646484375,-4.831685543060303,0.053089141845703125,-0.10893309116363525
1707576737376657000,8.041656982421875,-5.478764533996582,0.18410348892211914,-0.35766875743865967
1707576737395549400,8.060549560546875,-4.14951753616333,0.6833615303039551,-0.3551900386810303
1707576737414442000,8.07944189453125,-1.8705883026123047,0.6290984153747559,-0.361996054649353
1707576737433334300,8.098334228515625,-0.46939897537231445,0.13494396209716797,-0.5367320775985718
1707576737452226800,8.117226806640625,0.407318115234375,-0.07486248016357422,-0.527868926525116
1707576737471119400,8.136119384765625,1.0632801055908203,-0.1519761085510254,-0.4833298921585083
1707576737490012000,8.155011962890624,1.6463804244995117,-0.09406757354736328,-0.5001057982444763
1707576737508904200,8.173904296875,3.217021942138672,-0.26334476470947266,0.118588387966156
1707576737527796700,8.192796630859375,2.3241443634033203,-0.6926534175872803,0.012798488140106201
1707576737546689300,8.211689208984374,1.547307014465332,-0.625324010848999,0.3292819857597351
1707576737565581600,8.23058154296875,0.21264266967773438,-1.0004081726074219,0.7904544472694397
1707576737584474000,8.24947412109375,-0.2289896011352539,-0.36037635803222656,0.6789665222167969
1707576737603366700,8.26836669921875,-0.11778640747070312,-0.08991050720214844,0.5914837718009949
1707576737622259000,8.287259033203124,0.30464935302734375,-0.08456134796142578,0.50313800573349
1707576737641151500,8.3061513671875,0.12868213653564453,0.11810827255249023,0.4579468369483948
1707576737660044000,8.3250439453125,0.053839683532714844,0.44316768646240234,0.09943592548370361
1707576737678936600,8.3439365234375,0.05465507507324219,0.5823378562927246,-0.34273719787597656
1707576737697828900,8.362828857421874,-0.003849029541015625,0.48379945755004883,-0.5265583395957947
1707576737716721400,8.381721435546876,-0.28467369079589844,0.41398000717163086,-0.5698260068893433
1707576737735614000,8.400614013671875,-0.24231338500976562,0.393373966217041,-0.43919670581817627
1707576737754506200,8.41950634765625,-0.4318413734436035,0.40334510803222656,-0.5023594498634338
1707576737773398800,8.438398681640624,-0.7187809944152832,0.4043159484863281,-0.5411651730537415
1707576737792291300,8.457291259765626,-0.8268222808837891,0.26032257080078125,-0.40321826934814453
1707576737811183900,8.476183837890625,-0.6897296905517578,0.05654096603393555,-0.15216025710105896
1707576737830076200,8.495076171875,-0.4394359588623047,-0.0010685920715332031,0.06513473391532898
1707576737848968700,8.51396875,0.02035045623779297,0.06140470504760742,0.1300082504749298
1707576737867861200,8.532861328125,0.45363903045654297,0.059789180755615234,0.06790131330490112
1707576737886753500,8.55175341796875,0.8068838119506836,0.09579706192016602,0.0972374975681305
1707576737905646000,8.57064599609375,0.8269634246826172,0.056354522705078125,0.15246209502220154
1707576737924538600,8.58953857421875,0.639063835144043,-0.04694318771362305,0.16782629489898682
1707576737943431200,8.60843115234375,0.323211669921875,-0.07635736465454102,0.22903892397880554
1707576737962323500,8.627323486328125,0.18663787841796875,-0.10250616073608398,0.265527606010437
1707576737981216000,8.646216064453125,0.1554098129272461,-0.09238529205322266,0.1298184096813202
1707576738000108500,8.665108642578126,0.2585897445678711,-0.11174726486206055,-0.032903969287872314
1707576738019000800,8.684000732421875,-0.05579185485839844,-0.19027423858642578,-0.23605400323867798
1707576738037893400,8.702893310546875,-0.5486536026000977,-0.1405344009399414,-0.17897245287895203
1707576738056786000,8.721785888671874,-0.706082820892334,0.1654353141784668,-0.13413268327713013
1707576738075678500,8.740678466796876,-0.43861961364746094,0.4995870590209961,-0.37646013498306274
1707576738094570800,8.75957080078125,-0.019791603088378906,0.5238518714904785,-0.6092568635940552
1707576738113463300,8.77846337890625,0.23385047912597656,0.4121208190917969,-0.7252181768417358
1707576738132355800,8.79735595703125,0.4052104949951172,0.13678836822509766,-0.7648785710334778
1707576738151248400,8.816248291015626,0.20390701293945312,0.052260398864746094,-0.5963692665100098
1707576738170140700,8.835140625,0.0064563751220703125,0.26693296432495117,-0.4276944100856781
1707576738189033200,8.854033203125,-0.06933403015136719,0.252197265625,-0.20009207725524902
1707576738207925800,8.87292578125,0.07098770141601562,0.14976882934570312,0.07361626625061035
1707576738226818300,8.891818359375,0.20728492736816406,0.10514450073242188,0.2534838318824768
1707576738245710600,8.910710693359375,0.20717906951904297,0.10900020599365234,0.45664554834365845
1707576738264603100,8.92960302734375,0.07639312744140625,0.05070209503173828,0.6377792358398438
1707576738283495700,8.94849560546875,0.3285665512084961,0.012797832489013672,0.8530898094177246
1707576738302388000,8.967387939453126,0.45957469940185547,-0.005837917327880859,1.059283971786499
1707576738321280500,8.986280517578125,0.4254169464111328,-0.0838766098022461,1.0539183616638184
1707576738340173000,9.005173095703125,0.10840988159179688,-0.1990370750427246,0.9878674745559692
1707576738359065600,9.024065673828124,-0.41880226135253906,-0.27756261825561523,0.8404209613800049
1707576738377958000,9.0429580078125,-0.8004970550537109,-0.29429054260253906,0.7527421116828918
1707576738396850400,9.061850341796875,-0.7889828681945801,-0.21102285385131836,0.5590782165527344
1707576738415743000,9.080742919921875,-0.4664335250854492,-0.12652587890625,0.32971322536468506
1707576738434635500,9.099635498046876,-0.06689167022705078,-0.16707134246826172,-0.010587215423583984
1707576738453527800,9.11852783203125,0.059848785400390625,-0.20345640182495117,-0.2541063129901886
1707576738472420400,9.13742041015625,0.20598316192626953,-0.1572437286376953,-0.3037051558494568
1707576738491313000,9.15631298828125,0.2673196792602539,-0.12350845336914062,-0.43380534648895264
1707576738510205400,9.175205322265626,0.32712459564208984,-0.1013021469116211,-0.43123283982276917
1707576738529097700,9.19409765625,0.39206409454345703,-0.06404614448547363,-0.38904881477355957
1707576738547990300,9.212990234375,0.24118900299072266,-0.11641216278076172,-0.24556612968444824
1707576738566882800,9.2318828125,0.06701087951660156,-0.20363450050354004,-0.20348763465881348
1707576738585775000,9.250775146484376,-0.019537925720214844,-0.17822742462158203,-0.12001293897628784
1707576738604667600,9.269667724609375,-0.09065628051757812,-0.11555337905883789,-0.10746628046035767
1707576738623560200,9.288560302734375,-0.23438739776611328,0.022359371185302734,-0.11471778154373169
1707576738642452700,9.30745263671875,-0.2999544143676758,0.05393409729003906,-0.11467641592025757
1707576738661345000,9.326344970703126,-0.40604591369628906,0.06325745582580566,-0.0813143253326416
1707576738680237600,9.345237548828125,-0.208648681640625,0.16927003860473633,-0.06474024057388306
1707576738699130000,9.364130126953125,-0.06257247924804688,0.2405557632446289,-0.15335547924041748
1707576738718022400,9.3830224609375,0.26209163665771484,0.3421502113342285,-0.07547652721405029
1707576738736915000,9.4019150390625,0.6319398880004883,0.2880582809448242,-0.13904660940170288
1707576738755807500,9.420807373046875,0.75433349609375,0.2054281234741211,-0.26933348178863525
1707576738774700000,9.439699951171875,0.6579294204711914,0.15039896965026855,-0.19769996404647827
1707576738793592300,9.45859228515625,0.5141973495483398,-0.020158767700195312,-0.2212865948677063
1707576738812484900,9.47748486328125,0.45459938049316406,-0.15540623664855957,-0.18951719999313354
1707576738831377400,9.49637744140625,0.3581981658935547,-0.16147112846374512,-0.07205241918563843
1707576738850269700,9.515269775390625,0.1252269744873047,-0.2058868408203125,-0.010007381439208984
1707576738869162200,9.534162353515624,0.06940746307373047,-0.21405386924743652,0.02812635898590088
1707576738888054800,9.5530546875,0.05297279357910156,-0.24843049049377441,-0.009717106819152832
1707576738906947000,9.571947021484375,-0.06405067443847656,-0.30153393745422363,-0.04416847229003906
1707576738925839600,9.590839599609374,-0.10817909240722656,-0.3412964344024658,-0.07520890235900879
1707576738944732200,9.609732177734376,-0.0350189208984375,-0.2978544235229492,-0.20492279529571533
1707576738963624700,9.628624755859375,0.05676746368408203,-0.20229673385620117,-0.27258026599884033
1707576738982517000,9.64751708984375,0.1026926040649414,-0.1529245376586914,-0.19840067625045776
1707576739001409500,9.666409423828124,0.08781909942626953,-0.1567850112915039,-0.060224831104278564
1707576739020302000,9.685302001953126,-0.00782012939453125,-0.12494993209838867,0.13682031631469727
1707576739039194400,9.7041943359375,-0.22606277465820312,-0.0003058910369873047,0.37175512313842773
1707576739058087000,9.7230869140625,-0.3081321716308594,0.12552356719970703,0.49637460708618164
1707576739076979500,9.7419794921875,-0.19748497009277344,0.26986050605773926,0.44686853885650635
1707576739095872000,9.7608720703125,-0.059479713439941406,0.3261275291442871,0.34639859199523926
1707576739114764300,9.779764404296875,0.014950752258300781,0.35384464263916016,0.1794193983078003
1707576739133656800,9.79865673828125,-0.006161689758300781,0.42121458053588867,-0.02754199504852295
1707576739152549400,9.81754931640625,0.009485244750976562,0.44233059883117676,-0.22942304611206055
1707576739171441700,9.836441650390626,-0.09629631042480469,0.33936285972595215,-0.4101003408432007
1707576739190334200,9.855334228515625,-0.13696861267089844,0.31346774101257324,-0.44790494441986084
1707576739209226800,9.874226806640625,0.07223892211914062,0.3017604351043701,-0.33951234817504883
1707576739228119300,9.893119384765624,0.18894577026367188,0.19618535041809082,-0.23792624473571777
1707576739247011600,9.912011474609375,0.09115886688232422,0.03032851219177246,-0.08899152278900146
1707576739265904000,9.930904052734375,-0.17751407623291016,-0.08303451538085938,0.1247485876083374
1707576739284796700,9.949796630859375,-0.2248983383178711,-0.13039565086364746,0.061348140239715576
1707576739303689000,9.96868896484375,-0.02508831024169922,-0.11087870597839355,0.03806883096694946
1707576739322581500,9.98758154296875,0.3248615264892578,-0.18241167068481445,0.041948914527893066
1707576739341474000,10.00647412109375,0.50384521484375,-0.3577430248260498,0.08272683620452881
1707576739360366600,10.02536669921875,0.37940216064453125,-0.5979640483856201,0.18320274353027344
1707576739379259000,10.0442587890625,-0.10742759704589844,-0.6211719512939453,0.4356346130371094
1707576739398151400,10.0631513671875,-0.4437990188598633,-0.6039175987243652,0.6439666748046875
1707576739417044000,10.0820439453125,-0.6432485580444336,-0.603440523147583,0.692645788192749
1707576739435936300,10.100936279296874,-0.7740793228149414,-0.40929436683654785,0.6586712598800659
1707576739454828800,10.119828857421876,-0.7624082565307617,-0.05452775955200195,0.6012802124023438
1707576739473721300,10.138721435546875,-0.4508371353149414,0.22334551811218262,0.27087903022766113
1707576739492613600,10.157613525390625,0.03139209747314453,0.5644087791442871,-0.11855840682983398
1707576739511506200,10.176506103515624,0.7145614624023438,0.7235283851623535,-0.498998761177063
1707576739530398700,10.195398681640626,1.0850191116333008,0.7548255920410156,-0.506049394607544
1707576739549291300,10.214291259765625,1.0851736068725586,0.4719686508178711,-0.5857090950012207
1707576739568183600,10.23318359375,0.5215005874633789,0.24498438835144043,-0.40812253952026367
1707576739587076000,10.252076171875,-0.2511157989501953,0.05771970748901367,-0.2527877688407898
1707576739605968600,10.27096875,-0.9479732513427734,-0.06345891952514648,-0.025917649269104004
1707576739624861000,10.28986083984375,-1.2613134384155273,-0.1856386661529541,0.04642128944396973
1707576739643753500,10.30875341796875,-1.2423791885375977,-0.17081475257873535,-0.14886516332626343
1707576739662646000,10.32764599609375,-1.0557985305786133,-0.005461215972900391,-0.5023057460784912
1707576739681538600,10.34653857421875,-0.7438831329345703,0.2453756332397461,-0.7170619368553162
1707576739700430800,10.365430908203125,-0.3973226547241211,0.4160299301147461,-0.6053344011306763
1707576739719323400,10.384323486328125,0.09765434265136719,0.35819387435913086,-0.4408967196941376
1707576739738216000,10.4032158203125,0.3812065124511719,0.09661674499511719,-0.1780257225036621
1707576739757108500,10.4221083984375,0.34273624420166016,-0.16747784614562988,0.020707011222839355
1707576739776000800,10.441000732421875,-0.06866264343261719,-0.17018580436706543,0.1516541838645935
1707576739794893300,10.459893310546875,-0.48766136169433594,-0.002582550048828125,0.26476794481277466
1707576739813785900,10.478785888671876,-0.4645528793334961,0.34292149543762207,0.23236894607543945
1707576739832678100,10.49767822265625,0.09143447875976562,0.3847348690032959,0.1625170111656189
1707576739851570700,10.51657080078125,0.7815437316894531,0.10171747207641602,0.20415371656417847
1707576739870463200,10.535463134765624,1.2981586456298828,-0.2559220790863037,0.5072946548461914
1707576739889355800,10.554355712890626,1.3975496292114258,-0.5442759990692139,0.7401094436645508
1707576739908248000,10.573248046875,1.0823965072631836,-0.6794049739837646,0.7280383110046387
1707576739927140600,10.592140625,0.4890575408935547,-0.5208055973052979,0.5831671953201294
1707576739946033200,10.611033203125,-0.0403594970703125,-0.32064032554626465,0.38541078567504883
1707576739964925700,10.62992578125,-0.30945587158203125,-0.29927730560302734,0.2487015724182129
1707576739983818000,10.64881787109375,-0.23322772979736328,-0.3605649471282959,0.154646635055542
1707576740002710500,10.66771044921875,-0.0031585693359375,-0.3016974925994873,-0.05095994472503662
1707576740021603000,10.68660302734375,0.1826953887939453,-0.10737919807434082,-0.2872611880302429
1707576740040495400,10.705495361328126,0.29163360595703125,0.13451528549194336,-0.4349204897880554
1707576740059388000,10.724387939453125,0.23602771759033203,0.2996408939361572,-0.5839347839355469
1707576740078280400,10.743280517578125,0.052623748779296875,0.36045336723327637,-0.7141134142875671
1707576740097173000,10.762173095703124,-0.0800790786743164,0.45620203018188477,-0.7852375507354736
1707576740116065300,10.781065185546876,-0.2332773208618164,0.4471280574798584,-0.7891750335693359
1707576740134957800,10.799957763671875,-0.3903665542602539,0.3627779483795166,-0.7301306128501892
1707576740153850400,10.818850341796875,-0.4870796203613281,0.24908018112182617,-0.48295336961746216
1707576740172743000,10.837742919921874,-0.5082216262817383,0.10940170288085938,-0.26244479417800903
1707576740191635200,10.85663525390625,-0.42758655548095703,0.0708913803100586,-0.11912226676940918
1707576740210527700,10.87552783203125,-0.29950809478759766,0.014302492141723633,-0.05866032838821411
1707576740229420300,10.894420166015625,-0.11024665832519531,-0.048264265060424805,-0.020949602127075195
1707576740248312600,10.9133125,0.08867073059082031,-0.010311603546142578,0.04760432243347168
1707576740267205000,10.932205078125,0.25748729705810547,0.006788969039916992,0.1492917537689209
1707576740286097700,10.95109765625,0.39638328552246094,-0.0653841495513916,0.1867678165435791
1707576740304990200,10.969990234375,0.4560279846191406,-0.08124732971191406,0.16855669021606445
1707576740323882500,10.988882568359376,0.4315004348754883,-0.049633026123046875,0.1718844175338745
1707576740342775000,11.007775146484375,0.24190807342529297,-0.040373802185058594,0.14209914207458496
1707576740361667600,11.02666748046875,0.052720069885253906,0.011643648147583008,0.04529905319213867
1707576740380560100,11.04556005859375,-0.09203815460205078,0.016269207000732422,-0.055399537086486816
1707576740399452400,11.064452392578126,-0.20928287506103516,0.0016376972198486328,-0.08875179290771484
1707576740418345000,11.083344970703125,-0.18995189666748047,-0.017527103424072266,-0.08400535583496094
1707576740437237500,11.102237548828125,-0.03471183776855469,-0.01793527603149414,-0.059710025787353516
1707576740456129800,11.1211298828125,0.08461189270019531,-0.04002237319946289,-0.09178996086120605
1707576740475022300,11.140022216796876,0.09543323516845703,-0.061916351318359375,-0.035254597663879395
1707576740493915000,11.158914794921875,0.08699703216552734,-0.04260587692260742,0.01186823844909668
1707576740512807400,11.177807373046875,0.09097957611083984,0.0013592243194580078,0.06068146228790283
1707576740531699700,11.19669970703125,0.09641361236572266,0.014726638793945312,0.035114407539367676
1707576740550592300,11.21559228515625,0.062430381774902344,0.03942275047302246,-0.02167201042175293
1707576740569484800,11.23448486328125,0.00026416778564453125,0.059348344802856445,-0.024047493934631348
1707576740588377000,11.253377197265625,0.01908397674560547,0.0755469799041748,-0.02296161651611328
1707576740607269600,11.27226953125,0.12753868103027344,0.04166698455810547,-0.035595059394836426
1707576740626162200,11.291162109375,0.13042831420898438,0.0646049976348877,-0.0675879716873169
1707576740645054500,11.310054443359375,0.0817422866821289,0.053262948989868164,-0.10526132583618164
1707576740663947000,11.328947021484375,-0.032405853271484375,0.05250263214111328,-0.13871359825134277
1707576740682839600,11.347839599609374,-0.120941162109375,0.08689570426940918,-0.16259324550628662
1707576740701732000,11.366732177734375,-0.12462806701660156,0.0740511417388916,-0.17890185117721558
1707576740720624400,11.385624267578125,-0.07706928253173828,0.04326486587524414,-0.10999763011932373
1707576740739517000,11.404516845703125,-0.015657424926757812,-0.02024054527282715,-0.06739068031311035
1707576740758409500,11.423409423828126,0.04973602294921875,-0.02334904670715332,-0.009166836738586426
1707576740777301800,11.4423017578125,0.07320213317871094,-0.026841402053833008,0.019136667251586914
1707576740796194300,11.4611943359375,0.11420345306396484,0.0019071102142333984,-0.02080070972442627
1707576740815086800,11.4800869140625,0.11451911926269531,0.011698246002197266,-0.007855653762817383
1707576740833979400,11.4989794921875,0.06594467163085938,0.004668235778808594,-0.015245556831359863
1707576740852871700,11.51787158203125,0.026572227478027344,-0.022567033767700195,-0.0035098791122436523
1707576740871764200,11.53676416015625,0.08231163024902344,-0.028270959854125977,0.06652724742889404
1707576740890656800,11.55565673828125,0.2279825210571289,-0.03447723388671875,0.07807731628417969
1707576740909549000,11.574549072265626,0.46430397033691406,-0.061008453369140625,0.06411194801330566
1707576740928441600,11.593441650390625,0.4279947280883789,-0.08770394325256348,0.06406843662261963
1707576740947334100,11.612334228515625,0.26657962799072266,-0.06925559043884277,0.10142433643341064
1707576740966226700,11.631226806640624,-0.0123443603515625,-0.12183856964111328,0.061959147453308105
1707576740985119000,11.650118896484376,-0.24741077423095703,-0.07500314712524414,-0.03208625316619873
1707576741004011500,11.669011474609375,-0.39109134674072266,-0.02927541732788086,-0.05574917793273926
1707576741022904000,11.687904052734375,-0.4416379928588867,-0.013336658477783203,-0.1305994987487793
1707576741041796400,11.70679638671875,-0.39833545684814453,0.051746368408203125,-0.14709872007369995
1707576741060689000,11.72568896484375,-0.16829776763916016,0.13846635818481445,-0.19104015827178955
1707576741079581400,11.74458154296875,-0.017940521240234375,0.12500476837158203,-0.15109765529632568
1707576741098474000,11.763473876953125,0.01110076904296875,0.09467363357543945,-0.1131855845451355
1707576741117366300,11.7823662109375,0.001445770263671875,0.13572168350219727,-0.08937430381774902
1707576741136258800,11.8012587890625,0.013273239135742188,0.15855026245117188,-0.14418673515319824
1707576741155151400,11.8201513671875,-0.04157066345214844,0.15691423416137695,-0.17327666282653809
1707576741174043600,11.839043701171875,-0.12864017486572266,0.07155752182006836,-0.1186111569404602
1707576741192936200,11.857936279296876,-0.16060924530029297,-0.03821897506713867,0.009560942649841309
1707576741211828700,11.876828857421875,-0.08453369140625,-0.17185163497924805,0.08034133911132812
1707576741230721300,11.89572119140625,-0.0743408203125,-0.1507406234741211,0.17310023307800293
1707576741249613600,11.914613525390624,0.2296915054321289,-0.014449119567871094,0.2077045440673828
1707576741268506000,11.933506103515626,0.5400447845458984,0.0335993766784668,0.018620967864990234
1707576741287398700,11.952398681640625,0.5816144943237305,-0.01787853240966797,-0.23185133934020996
1707576741306291000,11.971291015625,0.2709693908691406,-0.0062351226806640625,-0.20834505558013916
1707576741325183500,11.99018359375,-0.080291748046875,0.010742664337158203,-0.09817326068878174
1707576741344076000,12.009075927734376,-0.2413654327392578,-0.023917675018310547,-0.06735861301422119
1707576741362968300,12.02796826171875,-0.24837017059326172,-0.010524272918701172,-0.04344344139099121
1707576741381860900,12.04686083984375,-0.22449111938476562,-0.059523582458496094,0.005249381065368652
1707576741400753400,12.06575341796875,-0.1818084716796875,-0.06146574020385742,0.04903686046600342
1707576741419646000,12.08464599609375,-0.08366680145263672,-0.004635810852050781,0.10469198226928711
1707576741438538200,12.103538330078125,-0.015165328979492188,0.07647848129272461,0.09896492958068848
1707576741457430800,12.1224306640625,0.036243438720703125,0.12671804428100586,0.015325188636779785
1707576741476323300,12.1413232421875,0.06782245635986328,0.15237951278686523,-0.08384156227111816
1707576741495215600,12.160215576171876,0.0047817230224609375,0.12485504150390625,-0.11476647853851318
1707576741514108200,12.179108154296875,-0.07432937622070312,0.056754112243652344,-0.0638895034790039
1707576741533000700,12.198000732421875,-0.0845794677734375,0.010731697082519531,-0.004773616790771484
1707576741551893200,12.216893310546874,-0.06892681121826172,-0.07505512237548828,0.05676388740539551
1707576741570785500,12.23578564453125,0.013272285461425781,-0.07067108154296875,0.03225517272949219
1707576741589678000,12.254677978515625,0.15790176391601562,-0.05461311340332031,-0.0023772716522216797
1707576741608570600,12.273570556640625,0.22657012939453125,-0.08003544807434082,-0.04044044017791748
1707576741627463000,12.292462890625,0.2407083511352539,-0.03987741470336914,-0.059010982513427734
1707576741646355500,12.31135546875,0.16399860382080078,-0.0346527099609375,-0.07356405258178711
1707576741665248000,12.330248046875,0.023752212524414062,-0.050101280212402344,-0.06741690635681152
1707576741684140500,12.349140625,-0.08294677734375,-0.054508209228515625,-0.02358078956604004
1707576741703032800,12.36803271484375,-0.10319995880126953,-0.03376293182373047,0.031783103942871094
1707576741721925400,12.38692529296875,-0.09241580963134766,-0.03491020202636719,0.05209004878997803
1707576741740818000,12.40581787109375,-0.053092002868652344,-0.05649232864379883,0.08323657512664795
1707576741759710200,12.424710205078124,-0.004494667053222656,0.011085987091064453,0.021250128746032715
1707576741778602800,12.443602783203126,0.06550121307373047,0.06373214721679688,-0.02868950366973877
1707576741797495300,12.462495361328125,0.05926227569580078,0.05417299270629883,-0.06708371639251709
1707576741816387800,12.481387939453125,-0.0036878585815429688,0.03630352020263672,-0.04979848861694336
1707576741835280100,12.500280029296874,-0.02863025665283203,0.030003070831298828,0.0014009475708007812
1707576741854172700,12.519172607421876,-0.05101203918457031,-0.01979541778564453,0.07872402667999268
1707576741873065200,12.538065185546875,-0.0757741928100586,-0.03762102127075195,0.04224860668182373
1707576741891957500,12.55695751953125,-0.05510997772216797,0.036499977111816406,0.048862457275390625
1707576741910850000,12.57585009765625,-0.031169891357421875,0.008829116821289062,0.06261706352233887
1707576741929742600,12.59474267578125,-0.0008211135864257812,-0.045228004455566406,0.11242485046386719
1707576741948635100,12.61363525390625,-0.03166484832763672,-0.09352946281433105,0.12009048461914062
1707576741967527400,12.63252734375,-0.05794525146484375,-0.05615854263305664,0.1310560703277588
1707576741986420000,12.651419921875,-0.0758829116821289,-0.001323699951171875,0.06676650047302246
1707576742005312500,12.6703125,-0.007925033569335938,0.0705108642578125,-0.03683590888977051
1707576742024204800,12.689204833984375,0.09292316436767578,0.09092998504638672,-0.1280752420425415
1707576742043097300,12.708097412109375,0.1365032196044922,0.08795833587646484,-0.19940447807312012
1707576742061990000,12.726989990234374,0.07596015930175781,0.043524742126464844,-0.1509178876876831
1707576742080882200,12.745882080078125,-0.008060455322265625,-0.004517555236816406,-0.039502859115600586
1707576742099774700,12.764774658203125,-0.004668235778808594,-0.033632755279541016,0.025434494018554688
1707576742118667300,12.783667236328125,0.02237987518310547,-0.05744147300720215,0.032268643379211426
1707576742137559800,12.802559814453126,0.03496265411376953,-0.058167457580566406,0.023237109184265137
1707576742156452000,12.8214521484375,0.03018474578857422,-0.0355677604675293,0.04848790168762207
1707576742175344600,12.8403447265625,-0.01632976531982422,-0.03713583946228027,0.04287314414978027
1707576742194237200,12.8592373046875,-0.038338661193847656,-0.03494882583618164,0.022218942642211914
1707576742213129500,12.87812939453125,-0.040154457092285156,-0.003437519073486328,-0.009863972663879395
1707576742232022000,12.89702197265625,0.024244308471679688,0.007883071899414062,-0.03641223907470703
1707576742250914600,12.91591455078125,0.08231163024902344,0.035370588302612305,-0.013128161430358887
1707576742269806800,12.934806884765624,0.08899879455566406,0.03478074073791504,-0.0022851228713989258
1707576742288699400,12.953699462890626,0.030908584594726562,0.013554096221923828,0.03307902812957764
1707576742307592000,12.972592041015625,-0.019721031188964844,-0.02253556251525879,0.0456618070602417
1707576742326484500,12.991484375,-0.02021026611328125,-0.02478480339050293,0.03237760066986084
1707576742345376800,13.010376708984374,0.0088653564453125,-0.03214287757873535,0.021613240242004395
1707576742364269300,13.029269287109376,0.012239456176757812,-0.05042099952697754,-0.00524139404296875
1707576742383161900,13.048161865234375,0.035790443420410156,-0.03704977035522461,0.022063493728637695
1707576742402054100,13.06705419921875,0.010602951049804688,0.017365455627441406,-0.000941157341003418
1707576742420946700,13.08594677734375,0.039664268493652344,0.03914308547973633,-0.033623456954956055
1707576742439839200,13.104839111328126,0.0634613037109375,0.036702632904052734,-0.04656946659088135
1707576742458731500,13.1237314453125,-0.004863739013671875,-0.004229545593261719,-0.035170674324035645
1707576742477624000,13.1426240234375,-0.04939842224121094,0.013736724853515625,-0.018420934677124023
1707576742496516600,13.1615166015625,-0.08078289031982422,-0.002849102020263672,-0.004033684730529785
1707576742515409000,13.180408935546875,-0.06030750274658203,-0.033594608306884766,0.02761971950531006
1707576742534301400,13.199301513671875,0.004565238952636719,-0.038663387298583984,0.017612934112548828
1707576742553194000,13.218194091796875,0.054866790771484375,-0.01020193099975586,-0.0035175085067749023
1707576742572086500,13.23708642578125,0.05498695373535156,0.007927417755126953,-0.05263221263885498
1707576742590978800,13.255978759765625,0.050665855407714844,0.02792835235595703,-0.05258035659790039
1707576742609871400,13.274871337890625,-0.0035066604614257812,0.014186859130859375,-0.05808889865875244
1707576742628764000,13.293763916015624,-0.05027961730957031,-0.00008058547973632812,0.00734710693359375
1707576742647656200,13.31265625,-0.06033134460449219,-0.00014448165893554688,0.008494019508361816
1707576742666548700,13.331548828125,-0.040225982666015625,0.006670475006103516,-0.02558457851409912
1707576742685441300,13.350441162109375,-0.015193939208984375,0.023131370544433594,-0.02980637550354004
1707576742704333600,13.36933349609375,0.004183769226074219,0.03607463836669922,-0.01956641674041748
1707576742723226000,13.38822607421875,0.0055217742919921875,0.021827220916748047,0.007141590118408203
1707576742742118700,13.40711865234375,0.054923057556152344,-0.03431224822998047,0.02871406078338623
1707576742761011000,13.426010986328125,0.09992790222167969,-0.033374786376953125,0.04385232925415039
1707576742779903500,13.444903564453124,0.06874275207519531,-0.025816679000854492,0.026836037635803223
1707576742798796000,13.463796142578126,-0.008569717407226562,-0.039353370666503906,0.03961384296417236
1707576742817688300,13.482688232421875,-0.06404399871826172,-0.030675649642944336,0.03613591194152832
1707576742836580900,13.501580810546875,-0.0691232681274414,-0.031119108200073242,0.01868140697479248
1707576742855473400,13.520473388671874,-0.055957794189453125,-0.02457571029663086,0.028954744338989258
1707576742874366000,13.539365966796876,-0.001800537109375,0.01779460906982422,-0.007489562034606934
1707576742893258200,13.55825830078125,0.04931926727294922,0.05460214614868164,-0.08217549324035645
1707576742912150800,13.57715087890625,0.016485214233398438,0.04083538055419922,-0.09367239475250244
1707576742931043300,13.596043212890624,-0.004669189453125,0.02207803726196289,-0.03714895248413086
1707576742949935600,13.614935546875,-0.028710365295410156,-0.019689083099365234,0.016776323318481445
1707576742968828200,13.633828125,-0.06838798522949219,-0.0949864387512207,0.037839293479919434
1707576742987720700,13.652720703125,-0.044783592224121094,0.02121591567993164,0.10094559192657471
1707576743006613200,13.67161328125,0.05899620056152344,0.07227611541748047,0.030481457710266113
1707576743025505500,13.690505615234375,0.2019052505493164,0.05621814727783203,-0.0772329568862915
1707576743044398000,13.709398193359375,0.10512542724609375,-0.018443584442138672,-0.08892273902893066
1707576743063290600,13.72829052734375,-0.09259510040283203,-0.05171346664428711,0.021071910858154297
1707576743082183000,13.747182861328126,-0.14123153686523438,-0.04011249542236328,0.014866352081298828
1707576743101075500,13.766075439453125,-0.023233413696289062,-0.018335819244384766,-0.035115718841552734
1707576743119968000,13.784968017578125,0.10230827331542969,-0.04380345344543457,-0.02957010269165039
1707576743138860500,13.803860595703124,0.13961029052734375,-0.04975175857543945,0.024823665618896484
1707576743157752800,13.8227529296875,0.07227230072021484,-0.05815601348876953,0.07169818878173828
1707576743176645400,13.841645263671875,0.0032825469970703125,-0.03406643867492676,0.1164858341217041
1707576743195538000,13.860537841796875,-0.01155853271484375,-0.02794027328491211,0.13383185863494873
1707576743214430200,13.87943017578125,-0.0026569366455078125,-0.023946762084960938,0.11148595809936523
1707576743233322800,13.89832275390625,-0.01698780059814453,-0.014254570007324219,0.02747642993927002
1707576743252215300,13.91721533203125,-0.03025341033935547,0.0001220703125,0.05612480640411377
1707576743271107800,13.93610791015625,-0.05965709686279297,-0.009928703308105469,0.00861203670501709
1707576743290000100,13.955000244140624,-0.07801342010498047,0.004275798797607422,0.011408448219299316
1707576743308892700,13.973892578125,-0.07472515106201172,0.036679744720458984,-0.019309639930725098
1707576743327785200,13.99278515625,-0.0696268081665039,0.07167768478393555,0.0035283565521240234
1707576743346677500,14.011677490234375,-0.05681133270263672,0.0923304557800293,0.005069136619567871
1707576743365570000,14.030570068359374,-0.006413459777832031,0.08289861679077148,-0.1243138313293457
1707576743384462600,14.049462646484375,0.0856475830078125,0.0749359130859375,-0.24502217769622803
1707576743403355000,14.06835498046875,0.06371688842773438,0.05739927291870117,-0.2533940076828003
1707576743422247400,14.087247314453125,-0.005057334899902344,0.015635967254638672,-0.18618369102478027
1707576743441140000,14.106139892578126,-0.05476093292236328,-0.020299434661865234,-0.11975955963134766
1707576743460032500,14.125032470703125,-0.04301643371582031,-0.029994964599609375,-0.06627762317657471
1707576743478924800,14.1439248046875,0.009009361267089844,-0.04859447479248047,-0.01945936679840088
1707576743497817300,14.1628173828125,0.061964988708496094,-0.04862356185913086,0.0772857666015625
1707576743516710000,14.1817099609375,0.08047771453857422,-0.05393552780151367,0.1832749843597412
1707576743535602200,14.200602294921875,0.04435539245605469,-0.05487632751464844,0.21364402770996094
1707576743554494700,14.21949462890625,0.03378868103027344,-0.02498626708984375,0.20652985572814941
1707576743573387300,14.23838720703125,-0.010034561157226562,-0.029971599578857422,0.18006885051727295
1707576743592279600,14.257279541015626,-0.05111503601074219,-0.03273439407348633,0.07612228393554688
1707576743611172000,14.276172119140625,-0.07658672332763672,-0.03333425521850586,0.009203553199768066
1707576743630064600,14.295064697265625,-0.008847236633300781,-0.004387855529785156,-0.07194507122039795
1707576743648957000,14.31395703125,0.055619239807128906,0.032668113708496094,-0.1238558292388916
1707576743667849500,14.332849365234376,0.04747295379638672,0.05828428268432617,-0.15029561519622803
1707576743686742000,14.351741943359375,-0.010838508605957031,0.056699275970458984,-0.0998682975769043
1707576743705634300,14.37063427734375,-0.05485248565673828,0.02057504653930664,-0.0746908187866211
1707576743724526800,14.38952685546875,-0.045619964599609375,0.02256917953491211,-0.06425929069519043
1707576743743419400,14.40841943359375,-0.02989673614501953,0.024587631225585938,-0.06256723403930664
1707576743762311700,14.427311767578125,-0.047580718994140625,0.01220560073852539,-0.017513036727905273
1707576743781204200,14.446204345703125,-0.061705589294433594,-0.015057563781738281,0.01831233501434326
1707576743800096800,14.4650966796875,-0.042044639587402344,0.008527755737304688,0.03484773635864258
1707576743818989000,14.483989013671875,0.0057621002197265625,0.020326614379882812,0.02594733238220215
1707576743837881600,14.502881591796875,0.05658435821533203,0.027172565460205078,0.014920234680175781
1707576743856774100,14.521774169921875,0.06720924377441406,0.013323307037353516,-0.02659928798675537
1707576743875666700,14.540666748046876,0.03244590759277344,-0.016434192657470703,-0.014656543731689453
1707576743894559000,14.55955908203125,-0.027896881103515625,-0.03677797317504883,-0.014129638671875
1707576743913451500,14.578451416015625,-0.03565216064453125,-0.03534555435180664,0.03596651554107666
1707576743932344000,14.597343994140624,-0.020013809204101562,-0.014230728149414062,0.015367865562438965
1707576743951236400,14.616236328125,0.009922981262207031,0.022184371948242188,-0.014685869216918945
1707576743970129000,14.63512890625,0.05502605438232422,0.0413818359375,-0.010626792907714844
1707576743989021400,14.654021484375,0.03126049041748047,0.0035467147827148438,0.022594809532165527
1707576744007914000,14.6729140625,-0.02207660675048828,-0.01098489761352539,0.003929853439331055
1707576744026806300,14.69180615234375,-0.038971900939941406,-0.022854328155517578,-0.012211322784423828
1707576744045698800,14.71069873046875,-0.029022216796875,-0.042170047760009766,-0.0004559755325317383
1707576744064591400,14.72959130859375,-0.006744384765625,-0.04143953323364258,0.006323695182800293
1707576744083483600,14.748483642578124,0.017373085021972656,-0.042057037353515625,0.03629279136657715
1707576744102376200,14.767376220703126,0.010607719421386719,-0.07142400741577148,0.038710713386535645
1707576744121268700,14.786268798828125,-0.008211135864257812,-0.0774693489074707,0.02670741081237793
1707576744140161300,14.805161376953125,0.023720741271972656,-0.03230142593383789,0.02638411521911621
1707576744159053600,14.824053466796874,0.04931163787841797,-0.009212493896484375,0.053656816482543945
1707576744177946000,14.842946044921876,0.015475273132324219,-0.009930610656738281,0.08886992931365967
1707576744196838700,14.861838623046875,-0.0382232666015625,0.08280229568481445,0.05737125873565674
1707576744215731000,14.88073095703125,0.05109119415283203,0.2136974334716797,-0.03351140022277832
1707576744234623500,14.89962353515625,0.01762866973876953,0.15700864791870117,-0.2187047004699707
1707576744253516000,14.91851611328125,-0.013495445251464844,0.10577964782714844,-0.2142850160598755
1707576744272408300,14.937408203125,-0.14295101165771484,0.04115581512451172,-0.08277976512908936
1707576744291300900,14.95630078125,-0.24322795867919922,-0.05081319808959961,0.07011497020721436
1707576744310193400,14.975193359375,-0.1458444595336914,-0.08718347549438477,0.13303279876708984
1707576744329085700,14.994085693359375,0.07448863983154297,-0.10913753509521484,0.1194310188293457
1707576744347978200,15.012978271484375,0.29073429107666016,-0.09768295288085938,0.055559396743774414
1707576744366870800,15.031870849609374,0.30654430389404297,-0.06960391998291016,0.00006270408630371094
1707576744385763000,15.05076318359375,0.090301513671875,-0.06873273849487305,0.0073528289794921875
1707576744404655600,15.069655517578125,-0.15539932250976562,-0.020873546600341797,0.01980435848236084
1707576744423548200,15.088548095703125,-0.2567462921142578,-0.023099422454833984,0.030429840087890625
1707576744442440400,15.1074404296875,-0.15931129455566406,-0.007282733917236328,0.02553880214691162
1707576744461333000,15.1263330078125,0.02698802947998047,-0.0025234222412109375,-0.011812210083007812
1707576744480225500,15.1452255859375,0.140960693359375,0.022824764251708984,-0.056971192359924316
1707576744499117800,15.164117919921875,0.12210369110107422,0.06484603881835938,-0.05242264270782471
1707576744518010400,15.18301025390625,0.06614112854003906,0.046532630920410156,-0.07122671604156494
1707576744536903000,15.20190283203125,-0.004062652587890625,0.04184150695800781,-0.03429758548736572
1707576744555795200,15.220795166015625,-0.04675006866455078,0.025539875030517578,0.014523863792419434
1707576744574687700,15.239687744140625,-0.07907581329345703,0.005187511444091797,0.03631997108459473
1707576744593580300,15.258580322265624,-0.06066131591796875,0.0024847984313964844,0.026053786277770996
1707576744612472800,15.277472900390626,-0.05343341827392578,-0.0007371902465820312,0.00661778450012207
1707576744631365000,15.296365234375,-0.033127784729003906,-0.019715309143066406,0.015387892723083496
1707576744650257700,15.315257568359375,0.023694992065429688,-0.028387069702148438,0.00483393669128418
1707576744669150200,15.334150146484374,0.08595085144042969,-0.017469406127929688,-0.011612296104431152
1707576744688042500,15.35304248046875,0.09650421142578125,0.031604766845703125,-0.028174281120300293
1707576744706935000,15.37193505859375,0.08555412292480469,0.020294666290283203,-0.05930817127227783
1707576744725827600,15.39082763671875,0.007884025573730469,0.014410972595214844,-0.02174556255340576
1707576744744720100,15.40972021484375,-0.042598724365234375,0.016572952270507812,-0.007086992263793945
1707576744763612400,15.4286123046875,-0.04163646697998047,0.004334449768066406,0.006886839866638184
1707576744782505000,15.4475048828125,-0.04276561737060547,0.000492095947265625,0.012351036071777344
1707576744801397500,15.4663974609375,-0.02433300018310547,-0.011410236358642578,0.009619593620300293
1707576744820289800,15.485289794921876,0.021026611328125,-0.007067680358886719,-0.02250206470489502
1707576744839182300,15.504182373046875,0.041106224060058594,-0.030554771423339844,-0.023184895515441895
1707576744858075000,15.523074951171875,-0.016333580017089844,-0.035596370697021484,0.027056097984313965
1707576744876967200,15.54196728515625,-0.014087677001953125,-0.022272109985351562,0.024618983268737793
1707576744895859700,15.560859619140626,0.024427413940429688,-0.015430927276611328,0.025902390480041504
1707576744914752300,15.579752197265625,0.036398887634277344,-0.009948253631591797,-0.02078723907470703
1707576744933644500,15.59864453125,0.029290199279785156,-0.007300376892089844,-0.031191110610961914
1707576744952537000,15.617537109375,0.0064544677734375,0.013564109802246094,-0.02827894687652588
1707576744971429600,15.6364296875,-0.011225700378417969,0.030018329620361328,0.007359981536865234
1707576744990322000,15.655322021484375,0.0031290054321289062,0.032912254333496094,-0.015175938606262207
1707576745009214500,15.67421435546875,0.0020418167114257812,0.018958091735839844,-0.004055142402648926
1707576745028107000,15.69310693359375,-0.0021257400512695312,0.015306472778320312,0.008674860000610352
1707576745046999300,15.711999267578125,-0.006084442138671875,-0.018175125122070312,0.018852949142456055
1707576745065891800,15.730891845703125,-0.03321075439453125,-0.0016622543334960938,0.027305960655212402
1707576745084784400,15.749784423828125,-0.05745506286621094,0.004312992095947266,-0.0044972896575927734
1707576745103676700,15.7686767578125,-0.03419017791748047,0.04096031188964844,-0.00802600383758545
1707576745122569200,15.7875693359375,0.011597633361816406,-0.021524429321289062,-0.02931821346282959
1707576745141461800,15.806461669921875,0.009518623352050781,-0.024861812591552734,0.0106658935546875
1707576745160354000,15.82535400390625,0.02464008331298828,-0.03152322769165039,0.012298226356506348
1707576745179246600,15.84424658203125,0.03625011444091797,-0.02702808380126953,0.0068471431732177734
1707576745198139100,15.86313916015625,-0.005787849426269531,-0.014833450317382812,0.00814199447631836
1707576745217031700,15.88203173828125,-0.02360248565673828,0.02417278289794922,-0.017443418502807617
1707576745235924000,15.900924072265624,0.010477066040039062,0.03971052169799805,-0.03531146049499512
1707576745254816500,15.91981640625,-0.02292919158935547,0.029516220092773438,-0.025030016899108887
1707576745273709000,15.938708984375,-0.057221412658691406,0.02407693862915039,0.00720524787902832
1707576745292601300,15.957601318359375,-0.05027198791503906,0.005096912384033203,-0.04183804988861084
1707576745311494000,15.976493896484374,-0.057003021240234375,0.031452178955078125,-0.03682565689086914
1707576745330386400,15.995386474609376,-0.0658712387084961,0.0027146339416503906,-0.031077265739440918
1707576745349279000,16.014279052734373,-0.06683731079101562,-0.009905815124511719,-0.09257614612579346
1707576745368171300,16.033171142578126,-0.06043720245361328,0.005822181701660156,-0.07142269611358643
1707576745387063800,16.052063720703124,-0.11222457885742188,0.023712158203125,-0.10728788375854492
1707576745405956000,16.0709560546875,-0.16313552856445312,0.04889869689941406,-0.15216457843780518
1707576745424848600,16.0898486328125,-0.10824203491210938,0.06537079811096191,-0.16119623184204102
1707576745443741200,16.1087412109375,-0.01522064208984375,0.10568046569824219,-0.1274169683456421
1707576745462633500,16.127633544921874,0.023504257202148438,0.08638620376586914,-0.06905114650726318
1707576745481526000,16.146526123046876,-0.004452705383300781,0.012432098388671875,-0.05552780628204346
1707576745500418600,16.16541845703125,-0.04849720001220703,-0.04803276062011719,-0.07494664192199707
1707576745519310800,16.184310791015626,-0.12429618835449219,-0.01922440528869629,-0.06673049926757812
1707576745538203400,16.203203369140624,-0.1595935821533203,-0.004182100296020508,0.010205626487731934
1707576745557096000,16.222095947265625,-0.035178184509277344,0.02937912940979004,0.06747889518737793
1707576745575988200,16.24098828125,0.13118743896484375,0.03786063194274902,0.09553146362304688
1707576745594880800,16.259880859375,0.27881336212158203,0.020315885543823242,0.07873213291168213
1707576745613773300,16.278773193359374,0.3534994125366211,-0.0025942325592041016,0.11605250835418701
1707576745632665900,16.297665771484375,0.3421916961669922,-0.042587995529174805,0.12993550300598145
1707576745651558100,16.31655810546875,0.2838134765625,-0.12276434898376465,0.17790043354034424
1707576745670450700,16.33545068359375,0.14742088317871094,-0.13721227645874023,0.1806950569152832
1707576745689343200,16.35434326171875,0.032395362854003906,-0.12609124183654785,0.15753018856048584
1707576745708235500,16.373235595703125,-0.04030609130859375,-0.11406850814819336,0.103171706199646
1707576745727128000,16.392128173828127,-0.07167720794677734,-0.06683516502380371,0.024242162704467773
1707576745746020600,16.4110205078125,-0.03972625732421875,-0.026870250701904297,-0.02637624740600586
1707576745764913200,16.4299130859375,-0.0055904388427734375,0.020896196365356445,-0.053382158279418945
1707576745783805400,16.448805419921875,0.023954391479492188,0.06240582466125488,-0.11710214614868164
1707576745802698000,16.467697998046877,0.03868389129638672,0.0627593994140625,-0.10202264785766602
1707576745821590500,16.486590576171874,0.02048015594482422,0.018498897552490234,-0.04365110397338867
1707576745840482800,16.50548291015625,0.002956390380859375,-0.0008242130279541016,-0.02018916606903076
1707576745859375400,16.524375244140625,-0.02899456024169922,-0.020664453506469727,-0.02033543586730957
1707576745878268000,16.543267822265626,-0.04637432098388672,-0.024389982223510742,0.015843629837036133
1707576745897160200,16.56216015625,-0.06583118438720703,-0.026187419891357422,0.04900312423706055
1707576745916052700,16.581052734375,-0.029425621032714844,-0.012648344039916992,0.031061887741088867
1707576745934945300,16.5999453125,0.019827842712402344,-0.01468038558959961,0.011232376098632812
1707576745953837600,16.618837646484376,0.021135330200195312,0.003864765167236328,-0.007520437240600586
1707576745972730000,16.637730224609374,-0.011456489562988281,0.007923364639282227,0.007643938064575195
1707576745991622400,16.656622314453124,0.018474578857421875,0.04935884475708008,-0.009754419326782227
1707576746010515000,16.675514892578125,0.06444644927978516,0.02912616729736328,0.013860464096069336
1707576746029407500,16.694407470703126,0.06753730773925781,-0.014926671981811523,0.017608642578125
1707576746048300000,16.713300048828124,0.033492088317871094,-0.034020185470581055,0.02178359031677246
1707576746067192300,16.7321923828125,0.0252227783203125,-0.03497648239135742,0.008660554885864258
1707576746086084900,16.7510849609375,-0.002712249755859375,-0.03423142433166504,0.02337932586669922
1707576746104977400,16.769977294921876,-0.006264686584472656,-0.02564525604248047,-0.021477699279785156
1707576746123869700,16.78886962890625,0.006190299987792969,0.002541780471801758,-0.019669294357299805
1707576746142762200,16.80776220703125,0.049948692321777344,-0.0034902095794677734,-0.050574302673339844
1707576746161654800,16.82665478515625,0.06730270385742188,0.0072345733642578125,-0.05207967758178711
1707576746180547000,16.845547119140626,0.03656768798828125,0.05021977424621582,-0.013162851333618164
1707576746199439600,16.864439697265624,0.0358428955078125,0.05982613563537598,-0.02856135368347168
1707576746218332200,16.883332275390625,0.036170005798339844,0.04970192909240723,-0.07792115211486816
1707576746237224700,16.902224609375,0.013212203979492188,0.006645917892456055,-0.11232137680053711
1707576746256117000,16.921116943359376,0.0011110305786132812,0.003473520278930664,-0.09775829315185547
1707576746275009500,16.940009521484374,0.022369384765625,-0.01032114028930664,-0.057825565338134766
1707576746293902000,16.958902099609375,0.014575958251953125,-0.048325300216674805,-0.009280204772949219
1707576746312794400,16.97779443359375,-0.06917476654052734,-0.02507758140563965,0.014403581619262695
1707576746331687000,16.99668701171875,-0.08889961242675781,0.025360107421875,0.05362510681152344
1707576746350579500,17.015579345703124,-0.06828689575195312,-0.015966415405273438,0.08253335952758789
1707576746369471700,17.0344716796875,-0.02754974365234375,-0.009963274002075195,0.07144451141357422
1707576746388364300,17.0533642578125,-0.031556129455566406,0.032067060470581055,0.05895733833312988
1707576746407256800,17.0722568359375,-0.043740272521972656,0.05389881134033203,0.02726125717163086
1707576746426149000,17.091149169921874,-0.02283191680908203,0.04753398895263672,-0.050618886947631836
1707576746445041700,17.110041748046875,0.01511383056640625,0.01925516128540039,-0.056734561920166016
1707576746463934000,17.128933837890624,0.014836311340332031,-0.047866106033325195,-0.01228022575378418
1707576746482826500,17.147826416015626,0.04744243621826172,-0.08933877944946289,0.00862264633178711
1707576746501719000,17.166718994140624,0.06459999084472656,-0.08604955673217773,0.05072033405303955
1707576746520611600,17.185611572265625,0.04805278778076172,-0.07007002830505371,0.05233144760131836
1707576746539503900,17.20450390625,0.046311378479003906,-0.03752875328063965,0.03857064247131348
1707576746558396400,17.223396484375,0.010164260864257812,-0.03234720230102539,0.010341405868530273
1707576746577289000,17.2422890625,-0.0680999755859375,-0.04794669151306152,0.02936077117919922
1707576746596181200,17.26118115234375,-0.09056663513183594,-0.030351638793945312,0.02763843536376953
1707576746615073800,17.28007373046875,-0.05431365966796875,-0.039403676986694336,0.0754849910736084
1707576746633966300,17.29896630859375,-0.050800323486328125,-0.030156850814819336,0.09497547149658203
1707576746652859000,17.31785888671875,-0.02341747283935547,0.025008201599121094,0.06735587120056152
1707576746671751200,17.336751220703125,0.031475067138671875,0.0444793701171875,0.04066824913024902
1707576746690643700,17.355643798828126,0.02675628662109375,0.03789091110229492,0.02121138572692871
1707576746709536300,17.374536376953124,-0.0021181106567382812,0.012932538986206055,-0.011662006378173828
1707576746728428500,17.393428466796873,-0.02527618408203125,0.028348207473754883,-0.06238722801208496
1707576746747321000,17.412321044921875,-0.02823638916015625,0.053343772888183594,-0.1048499345779419
1707576746766213600,17.431213623046876,-0.010569572448730469,0.05919504165649414,-0.10162115097045898
1707576746785106000,17.45010595703125,0.02387714385986328,0.023389101028442383,-0.05002725124359131
1707576746803998500,17.46899853515625,0.05911445617675781,-0.028750181198120117,0.02107095718383789
1707576746822890800,17.487890869140625,0.037543296813964844,-0.037256479263305664,0.050421714782714844
1707576746841783300,17.506783203125,0.0017337799072265625,-0.042624473571777344,0.0560755729675293
1707576746860675800,17.52567578125,-0.028639793395996094,-0.027152061462402344,0.015166878700256348
1707576746879568100,17.544568115234377,-0.005621910095214844,-0.0022444725036621094,-0.015699267387390137
1707576746898460700,17.563460693359374,0.017775535583496094,0.005292415618896484,-0.010187625885009766
1707576746917353200,17.582353271484376,0.015729904174804688,0.013590812683105469,-0.027486324310302734
1707576746936245800,17.601245849609374,0.005587577819824219,0.01165008544921875,-0.030220746994018555
1707576746955138000,17.620137939453127,0.013381004333496094,0.005042552947998047,-0.001374363899230957
1707576746974030600,17.639030517578124,0.030669212341308594,-0.03760671615600586,0.01078939437866211
1707576746992923100,17.657923095703126,-0.02553272247314453,-0.01501607894897461,0.04815936088562012
1707576747011815400,17.6768154296875,-0.03345775604248047,0.0009541511535644531,0.04845476150512695
1707576747030708000,17.6957080078125,-0.045998573303222656,-0.005589962005615234,0.026262283325195312
1707576747049600500,17.7146005859375,-0.009865760803222656,0.029186010360717773,-0.026691317558288574
1707576747068492800,17.733492919921876,0.04949188232421875,0.06448101997375488,-0.051735877990722656
1707576747087385300,17.75238525390625,0.047904014587402344,0.03317856788635254,-0.09778892993927002
1707576747106278000,17.77127783203125,-0.019649505615234375,0.0012161731719970703,-0.07458138465881348
1707576747125170200,17.790170166015624,-0.08175945281982422,-0.012494802474975586,0.015113353729248047
1707576747144062700,17.809062744140626,-0.08113861083984375,-0.03016805648803711,0.07461214065551758
1707576747162955300,17.827955322265623,0.0048370361328125,-0.048426151275634766,0.046244144439697266
1707576747181847600,17.84684765625,0.11392021179199219,-0.0476689338684082,0.0341794490814209
1707576747200740000,17.865739990234374,0.15656566619873047,-0.02979588508605957,0.0017921924591064453
1707576747219632600,17.884632568359375,0.10743522644042969,-0.0015788078308105469,-0.041612863540649414
1707576747238525000,17.90352490234375,-0.030531883239746094,0.02636241912841797,-0.04298686981201172
1707576747257417500,17.92241748046875,-0.1110525131225586,0.028719186782836914,0.012183666229248047
1707576747276310000,17.94131005859375,-0.14241409301757812,0.03941822052001953,-0.022438764572143555
1707576747295202300,17.960202392578125,-0.07359886169433594,0.04069089889526367,-0.034732818603515625
1707576747314094800,17.9790947265625,0.049973487854003906,0.04518318176269531,-0.05486655235290527
1707576747332987400,17.9979873046875,0.09564781188964844,0.03149223327636719,-0.05584752559661865
1707576747351879700,18.016879638671874,0.05086803436279297,0.019179821014404297,-0.02740168571472168
1707576747370772200,18.035772216796875,-0.0030660629272460938,-0.02215099334716797,0.01248621940612793
1707576747389664800,18.054664794921877,-0.024868011474609375,-0.08923125267028809,0.05393338203430176
1707576747408557300,18.073557373046874,-0.03801727294921875,-0.05746960639953613,0.02639317512512207
1707576747427449600,18.09244970703125,-0.03036785125732422,-0.014806985855102539,0.029058456420898438
1707576747446342100,18.111342041015625,0.0071811676025390625,-0.03708457946777344,0.0069277286529541016
1707576747465234700,18.130234619140627,0.0822610855102539,-0.034119606018066406,0.010077714920043945
1707576747484127000,18.149126953125,0.06011772155761719,-0.017189979553222656,0.015427112579345703
1707576747503019500,18.16801953125,-0.0017271041870117188,0.038742780685424805,0.0013527870178222656
1707576747521912000,18.186912109375,-0.050045013427734375,0.03894448280334473,-0.01986110210418701
1707576747540804400,18.205804443359376,-0.062027931213378906,0.0547175407409668,-0.04767966270446777
1707576747559697000,18.22469677734375,-0.07786178588867188,0.06927275657653809,-0.05716049671173096
1707576747578589200,18.243589111328124,-0.04504966735839844,0.05000567436218262,-0.050150394439697266
1707576747597481700,18.262481689453125,0.03454113006591797,0.009257793426513672,-0.022375822067260742
1707576747616374300,18.281374267578126,0.0723867416381836,0.005765676498413086,-0.0019960403442382812
1707576747635266600,18.3002666015625,0.05022239685058594,-0.03816866874694824,0.024841785430908203
1707576747654159000,18.3191591796875,-0.00022220611572265625,-0.0581972599029541,0.05744457244873047
1707576747673051600,18.3380517578125,-0.01887989044189453,-0.060320377349853516,0.04789471626281738
1707576747691944200,18.356944091796876,-0.0012531280517578125,-0.04953145980834961,0.015383243560791016
1707576747710836500,18.37583642578125,0.0011529922485351562,-0.0045452117919921875,-0.010814905166625977
1707576747729729000,18.39472900390625,-0.020422935485839844,0.013712644577026367,-0.020097851753234863
1707576747748621600,18.41362158203125,-0.014719009399414062,0.022105693817138672,-0.05114948749542236
1707576747767513900,18.432513916015626,0.0040988922119140625,0.02014636993408203,-0.009989023208618164
1707576747786406400,18.451406494140624,-0.007099151611328125,0.02403712272644043,-0.018216490745544434
1707576747805299000,18.470298828125,-0.02065753936767578,0.020999908447265625,-0.03329610824584961
1707576747824191500,18.48919140625,-0.014798164367675781,-0.015237569808959961,-0.00907135009765625
1707576747843083800,18.508083740234376,0.011722564697265625,-0.00684809684753418,0.026241302490234375
1707576747861976300,18.526976318359374,0.04885292053222656,-0.01128840446472168,0.03816103935241699
1707576747880868600,18.54586865234375,0.062148094177246094,-0.032593727111816406,0.04714703559875488
1707576747899761200,18.56476123046875,0.036057472229003906,-0.03911900520324707,-0.015110969543457031
1707576747918653700,18.58365380859375,-0.0008134841918945312,-0.0021691322326660156,-0.04145359992980957
1707576747937546000,18.6025458984375,-0.03399658203125,0.02938055992126465,-0.05546712875366211
1707576747956438500,18.6214384765625,-0.06793498992919922,0.029127120971679688,-0.026390910148620605
1707576747975331000,18.6403310546875,-0.0558624267578125,0.031014680862426758,0.005362510681152344
1707576747994223400,18.659223388671876,-0.0013866424560546875,0.035971879959106445,0.0008740425109863281
1707576748013116000,18.678115966796874,0.018951416015625,-0.003417491912841797,-0.0017139911651611328
1707576748032008400,18.697008544921875,0.03514671325683594,-0.00518798828125,0.01899409294128418
1707576748050900700,18.715900634765624,0.032566070556640625,-0.010994672775268555,0.008742094039916992
1707576748069793300,18.734793212890626,0.012726783752441406,0.004395484924316406,0.002187490463256836
1707576748088685800,18.753685791015624,0.015931129455566406,-0.018688678741455078,0.02513408660888672
1707576748107578000,18.772578125,-0.029715538024902344,-0.03036046028137207,0.018203258514404297
1707576748126470700,18.791470703125,-0.046401023864746094,-0.02721858024597168,0.004243373870849609
1707576748145363200,18.81036328125,-0.0036783218383789062,-0.007453203201293945,0.008833646774291992
1707576748164255700,18.829255859375,0.04945564270019531,-0.008248329162597656,-0.02767491340637207
1707576748183148000,18.84814794921875,0.03935718536376953,0.0014162063598632812,-0.015479803085327148
1707576748202040600,18.86704052734375,0.039592742919921875,0.020938396453857422,-0.034723520278930664
1707576748220933000,18.88593310546875,0.014352798461914062,0.032233238220214844,-0.025240778923034668
1707576748239825400,18.904825439453123,-0.01683521270751953,0.03847193717956543,-0.011615991592407227
1707576748258718000,18.923718017578125,-0.031014442443847656,0.014902830123901367,-0.012380123138427734
1707576748277610200,18.9426103515625,-0.0010986328125,0.011533975601196289,-0.027110815048217773
1707576748296502800,18.961502685546876,0.04911518096923828,0.028334379196166992,-0.04769301414489746
1707576748315395300,18.980395263671873,0.046802520751953125,0.017894268035888672,-0.07487154006958008
1707576748334287600,18.99928759765625,0.018125534057617188,0.0016300678253173828,-0.05701255798339844
1707576748353180200,19.01818017578125,-0.02024364471435547,-0.006523609161376953,0.0038449764251708984
1707576748372072700,19.03707275390625,-0.02631378173828125,-0.05781674385070801,0.04071307182312012
1707576748390965000,19.055965087890623,-0.037353515625,-0.08115196228027344,0.043718814849853516
1707576748409857500,19.074857421875,-0.011904716491699219,-0.06309771537780762,0.08121466636657715
1707576748428750000,19.09375,0.03381538391113281,-0.03476715087890625,0.07999992370605469
1707576748447642600,19.112642578125,0.057267189025878906,-0.03178286552429199,0.056444406509399414
1707576748466535000,19.131534912109377,0.047763824462890625,0.009127378463745117,-0.010532379150390625
1707576748485427500,19.150427490234375,0.008808135986328125,0.03240489959716797,-0.013459920883178711
1707576748504320000,19.169320068359376,-0.035981178283691406,0.05906844139099121,-0.01260232925415039
1707576748523212300,19.18821240234375,-0.07860279083251953,0.06296277046203613,-0.02989673614501953
1707576748542104800,19.207104736328127,-0.10525226593017578,0.0671238899230957,-0.035505056381225586
1707576748560997400,19.225997314453124,-0.0710601806640625,0.009670495986938477,-0.00816488265991211
1707576748579889700,19.2448896484375,0.004669189453125,-0.006314277648925781,-0.00041174888610839844
1707576748598782200,19.2637822265625,0.058399200439453125,-0.049582719802856445,0.02896595001220703
1707576748617674500,19.282674560546877,0.05026817321777344,-0.03373146057128906,0.03506875038146973
1707576748636567000,19.301567138671874,0.03604698181152344,-0.052366018295288086,0.040650129318237305
1707576748655459600,19.32045947265625,-0.009067535400390625,-0.05968117713928223,0.012594223022460938
1707576748674351900,19.339351806640625,-0.04125404357910156,-0.03207826614379883,0.01938176155090332
1707576748693244400,19.358244384765626,-0.04163932800292969,-0.0069692134857177734,0.01063084602355957
1707576748712137000,19.377136962890624,-0.028161048889160156,-0.030771255493164062,0.007855653762817383
1707576748731029200,19.396029296875,-0.039702415466308594,-0.032686471939086914,0.02538299560546875
1707576748749921800,19.414921875,-0.01177215576171875,-0.00791168212890625,0.05623269081115723
1707576748768814300,19.433814453125,0.08607101440429688,0.058824777603149414,0.014418363571166992
1707576748787707000,19.452706787109374,0.14421844482421875,0.04786276817321777,-0.06573140621185303
1707576748806599200,19.47159912109375,0.06904792785644531,0.05559062957763672,-0.0586397647857666
1707576748825491700,19.49049169921875,-0.06527519226074219,0.042081356048583984,-0.047580718994140625
1707576748844384300,19.50938427734375,-0.13903522491455078,0.014061689376831055,-0.022681236267089844
1707576748863276500,19.528276611328124,-0.11010932922363281,0.016203880310058594,-0.028070569038391113
1707576748882169000,19.547169189453125,-0.05829143524169922,-0.01833176612854004,-0.04153311252593994
1707576748901061600,19.5660615234375,0.011285781860351562,-0.0061724185943603516,-0.006727099418640137
1707576748919954000,19.584953857421876,0.0681619644165039,0.024733304977416992,-0.009718894958496094
1707576748938846500,19.603846435546874,0.08048534393310547,0.03838801383972168,-0.07969307899475098
1707576748957738800,19.62273876953125,0.019682884216308594,0.06418538093566895,-0.09975433349609375
1707576748976631300,19.64163134765625,-0.12610626220703125,0.07224750518798828,-0.12791979312896729
1707576748995523800,19.66052392578125,-0.1753406524658203,0.1025850772857666,-0.150831937789917
1707576749014416100,19.679416015625,-0.16633319854736328,0.10564541816711426,-0.11358499526977539
1707576749033308700,19.69830859375,-0.029807090759277344,0.08213043212890625,-0.090798020362854
1707576749052201200,19.717201171875,0.1391744613647461,0.0203859806060791,-0.046462416648864746
1707576749071093800,19.73609375,0.14955425262451172,0.019193172454833984,-0.0014984607696533203
1707576749089986000,19.754986083984374,0.07257366180419922,0.017852783203125,-0.009549736976623535
1707576749108878600,19.773878662109375,0.055701255798339844,0.03706502914428711,0.011855006217956543
1707576749127771100,19.792771240234377,0.07584571838378906,-0.012228727340698242,0.08471870422363281
1707576749146663400,19.811663330078126,-0.02262115478515625,-0.08942341804504395,0.1824859380722046
1707576749165556000,19.830555908203124,-0.024278640747070312,-0.12809252738952637,0.3023160696029663
1707576749184448500,19.849448486328125,-0.09704208374023438,-0.10226988792419434,0.2441999912261963
1707576749203340800,19.8683408203125,0.04943656921386719,-0.11054086685180664,0.23707425594329834
1707576749222233300,19.8872333984375,0.066680908203125,-0.1183314323425293,0.07798242568969727
1707576749241126000,19.9061259765625,0.14947986602783203,-0.14717936515808105,0.05231654644012451
1707576749260018200,19.92501806640625,0.2505989074707031,-0.1596221923828125,0.012621045112609863
1707576749278910700,19.94391064453125,0.19803524017333984,-0.09540414810180664,0.0398942232131958
1707576749297803000,19.962802978515626,0.18224143981933594,-0.07139110565185547,0.08817934989929199
1707576749316695600,19.981695556640624,0.17672348022460938,-0.04611682891845703,0.07924914360046387
1707576749335588000,20.000588134765625,0.15413188934326172,-0.10986208915710449,0.04521346092224121
1707576749354480400,20.01948046875,0.0639791488647461,-0.047536611557006836,-0.058060407638549805
1707576749373373000,20.038373046875,-0.10297107696533203,0.043561697006225586,-0.11048424243927002
1707576749392265500,20.057265380859373,-0.0959482192993164,0.07754302024841309,-0.08545494079589844
1707576749411158000,20.076157958984375,-0.11021804809570312,0.06826376914978027,-0.11406075954437256
1707576749430050300,20.09505029296875,-0.18434429168701172,0.12148499488830566,-0.14573180675506592
1707576749448942800,20.11394287109375,-0.25936222076416016,0.13458037376403809,-0.06573164463043213
1707576749467835400,20.13283544921875,-0.33874034881591797,0.027794599533081055,0.030933380126953125
1707576749486727700,20.151727783203125,-0.35820770263671875,0.02405571937561035,0.028779268264770508
1707576749505620200,20.1706201171875,-0.19506263732910156,-0.021581172943115234,0.00639796257019043
1707576749524512800,20.1895126953125,0.0166168212890625,-0.004499197006225586,0.022765636444091797
1707576749543405000,20.208405029296873,0.07893562316894531,0.025922298431396484,-0.04467165470123291
1707576749562297600,20.227297607421875,0.045714378356933594,0.02836894989013672,-0.13405108451843262
1707576749581190100,20.246190185546876,-0.0002231597900390625,-0.010301828384399414,-0.13310062885284424
1707576749600082400,20.26508251953125,-0.015299797058105469,-0.0442042350769043,-0.013653039932250977
1707576749618975000,20.28397509765625,-0.07788276672363281,-0.06384897232055664,0.06698501110076904
1707576749637867300,20.3028671875,-0.0044403076171875,-0.06905746459960938,0.06803321838378906
1707576749656759800,20.321759765625,0.1095590591430664,-0.05319476127624512,0.005757451057434082
1707576749675652400,20.34065234375,0.16197872161865234,-0.014649391174316406,-0.01817023754119873
1707576749694545000,20.359544921875,0.1957855224609375,0.027001619338989258,-0.017548322677612305
1707576749713437200,20.378437255859374,0.12868595123291016,-0.006906747817993164,0.027090072631835938
1707576749732329700,20.397329833984376,0.06572628021240234,-0.029440641403198242,0.08276331424713135
1707576749751222300,20.41622216796875,-0.001346588134765625,-0.020338058471679688,0.09579241275787354
1707576749770114600,20.435114501953127,-0.05944633483886719,0.013767480850219727,0.12054073810577393
1707576749789007000,20.454007080078124,-0.08348464965820312,0.025270462036132812,0.06592237949371338
1707576749807899600,20.472899658203126,-0.08670234680175781,0.03108668327331543,-0.009006619453430176
1707576749826792000,20.4917919921875,-0.07489490509033203,0.04723000526428223,-0.027698516845703125
1707576749845684500,20.5106845703125,-0.08523368835449219,0.06491231918334961,-0.07699704170227051
1707576749864577000,20.529576904296874,-0.07247638702392578,0.11614227294921875,-0.12150704860687256
1707576749883469300,20.54846923828125,-0.009674072265625,0.11326742172241211,-0.1671888828277588
1707576749902361900,20.56736181640625,0.02466106414794922,0.07958006858825684,-0.16531121730804443
1707576749921254100,20.586254150390626,0.006610870361328125,0.05020594596862793,-0.08254647254943848
1707576749940146700,20.605146728515624,0.013769149780273438,-0.022472143173217773,0.007155060768127441
1707576749959039200,20.624039306640626,0.006207466125488281,-0.07555222511291504,0.05455327033996582
1707576749977931800,20.642931884765623,0.038726806640625,-0.07168865203857422,0.053383827209472656
1707576749996824000,20.661823974609376,0.05792045593261719,-0.06042909622192383,0.06643569469451904
1707576750015716600,20.680716552734374,0.04237556457519531,-0.022337675094604492,0.05317378044128418
1707576750034609200,20.699609130859375,0.025124549865722656,0.01029825210571289,0.006666302680969238
1707576750053501400,20.71850146484375,0.006421089172363281,0.02519512176513672,-0.019046902656555176
1707576750072394000,20.73739404296875,-0.022156715393066406,0.01617717742919922,-0.059313058853149414
1707576750091286500,20.75628662109375,-0.024541854858398438,0.02821493148803711,-0.06208670139312744
1707576750110178800,20.7751787109375,-0.02628612518310547,0.01525259017944336,-0.06190228462219238
1707576750129071400,20.7940712890625,0.010639190673828125,0.009709596633911133,-0.040892720222473145
1707576750147964000,20.8129638671875,0.03956031799316406,-0.005440950393676758,-0.02240121364593506
1707576750166856200,20.831856201171874,-0.004431724548339844,-0.003046751022338867,-0.0007064342498779297
1707576750185748700,20.850748779296875,-0.05433368682861328,-0.006920814514160156,0.0150299072265625
1707576750204641000,20.86964111328125,-0.06714534759521484,0.0036530494689941406,-0.0012683868408203125
1707576750223533600,20.888533447265626,-0.0075855255126953125,-0.016628503799438477,0.007753849029541016
1707576750242426000,20.907426025390624,0.006730079650878906,-0.04173016548156738,0.03850209712982178
1707576750261318700,20.926318603515625,0.07226753234863281,-0.025113821029663086,0.020078063011169434
1707576750280211000,20.9452109375,0.06665229797363281,0.008868932723999023,0.0014358758926391602
1707576750299103500,20.964103515625,0.012186050415039062,0.024677038192749023,-0.0067092180252075195
1707576750317996000,20.98299609375,-0.006720542907714844,-0.021781444549560547,0.041722774505615234
1707576750336888300,21.001888427734375,-0.026136398315429688,-0.05056476593017578,0.004321575164794922
1707576750355780900,21.02078076171875,-0.04506111145019531,-0.002524852752685547,0.021265268325805664
1707576750374673400,21.03967333984375,-0.010560035705566406,0.045523643493652344,-0.03249180316925049
1707576750393565700,21.058565673828124,0.06982994079589844,0.07039523124694824,-0.03664815425872803
1707576750412458200,21.077458251953125,0.10156059265136719,0.02353835105895996,-0.027829408645629883
1707576750431350800,21.096350830078126,0.08403491973876953,-0.0117950439453125,-0.014972925186157227
1707576750450243000,21.1152431640625,0.023380279541015625,0.01363229751586914,-0.04323375225067139
1707576750469135600,21.134135498046874,-0.026920318603515625,-0.0030088424682617188,-0.019841432571411133
1707576750488028000,21.15302783203125,0.04964256286621094,-0.051894187927246094,-0.003462076187133789
1707576750506920400,21.17192041015625,-0.05962944030761719,-0.01705145835876465,0.0901404619216919
1707576750525813000,21.19081298828125,-0.1042633056640625,-0.0525662899017334,0.12554097175598145
1707576750544705300,21.209705322265624,-0.014847755432128906,-0.10834860801696777,0.04960346221923828
1707576750563597800,21.228597900390625,0.019681930541992188,-0.057092905044555664,0.031198620796203613
1707576750582490400,21.247490478515626,0.025549888610839844,0.030657291412353516,-0.010148286819458008
1707576750601383000,21.2663828125,0.09151172637939453,0.0748903751373291,-0.15634489059448242
1707576750620275200,21.285275146484373,0.090545654296875,0.08143424987792969,-0.2643446922302246
