time,seconds_elapsed,z,y,x
1707603220358233000,0.039233154296875,0,0,0
1707603220377126700,0.058126708984375,0.13922834396362305,-0.006719112396240234,-0.32048410177230835
1707603220396020000,0.07702001953125,0.14126920700073242,0.17309045791625977,0.03229212760925293
1707603220414913500,0.09591357421875,-0.16354608535766602,0.14250659942626953,0.1740364134311676
1707603220433807000,0.11480712890625,-0.2846379280090332,0.05380821228027344,0.2522282302379608
1707603220452700700,0.13370068359375,-0.30104923248291016,0.015880107879638672,0.2733590304851532
1707603220471594200,0.15259423828125,-0.22872066497802734,0.009700775146484375,0.128036767244339
1707603220490487800,0.17148779296875,-0.37738990783691406,0.027370452880859375,0.0353747121989727
1707603220509381400,0.19038134765625,-0.3605494499206543,-0.06764745712280273,0.16405904293060303
1707603220528274700,0.209274658203125,-0.12551259994506836,-0.2007155418395996,0.11144055426120758
1707603220547168300,0.228168212890625,-0.1121973991394043,-0.06927776336669922,-0.06817471235990524
1707603220566061800,0.247061767578125,-0.44371795654296875,-0.10419607162475586,-0.1242818832397461
1707603220584955400,0.265955322265625,-0.9201788902282715,-0.13095378875732422,-0.17200538516044617
1707603220603849000,0.284848876953125,-0.1736774444580078,0.20427608489990234,0.38522443175315857
1707603220622742500,0.303742431640625,-0.5290627479553223,-0.12074041366577148,0.15005677938461304
1707603220641636000,0.322635986328125,-0.6638336181640625,-0.008586883544921875,0.49345076084136963
1707603220660529700,0.34152978515625,0.15393352508544922,0.4453272819519043,0.3374597430229187
1707603220679423200,0.36042333984375,-0.1753077507019043,-0.07586383819580078,0.01604825258255005
1707603220698316500,0.379316650390625,-0.43782806396484375,-0.20495986938476562,0.2890370488166809
1707603220717210000,0.398210205078125,-0.4368743896484375,-0.5156373977661133,0.23106110095977783
1707603220736103700,0.417103759765625,0.30094099044799805,-0.46084070205688477,0.23862063884735107
1707603220754997200,0.435997314453125,0.2164778709411621,-0.21659088134765625,0.2132074236869812
1707603220773890800,0.454890869140625,0.760251522064209,-0.4232320785522461,-0.09700167179107666
1707603220792784400,0.473784423828125,1.3531403541564941,-0.49759864807128906,0.5686712265014648
1707603220811678000,0.492677978515625,1.8617196083068848,-0.6881546974182129,0.7474460601806641
1707603220830571500,0.511571533203125,1.3309955596923828,-0.05649375915527344,0.33869922161102295
1707603220849465000,0.530465087890625,0.3892054557800293,-0.20963382720947266,0.40457308292388916
1707603220868358700,0.549358642578125,-0.36705827713012695,-0.5110797882080078,0.9902271032333374
1707603220887252200,0.568252197265625,-0.5174074172973633,-0.7266135215759277,0.6081596612930298
1707603220906145800,0.587145751953125,-1.4961442947387695,-0.4718136787414551,0.6540039777755737
1707603220925039400,0.606039306640625,-0.6656193733215332,-0.030254840850830078,-0.7835408449172974
1707603220943933000,0.624932861328125,0.09943151473999023,0.6083950996398926,-0.7662471532821655
1707603220962826200,0.643826171875,-0.39964962005615234,0.6406979560852051,-0.18021368980407715
1707603220981719800,0.6627197265625,-0.015663623809814453,-0.409822940826416,-0.01908743381500244
1707603221000613400,0.68161328125,0.02643442153930664,-0.9819011688232422,1.1842089891433716
1707603221019507000,0.7005068359375,-1.0826921463012695,-0.9704713821411133,1.280929446220398
1707603221038400500,0.719400390625,0.4776029586791992,-0.26097822189331055,0.1565479040145874
1707603221057294000,0.738294189453125,0.5944228172302246,0.34385061264038086,0.5682226419448853
1707603221076187600,0.757187744140625,-0.326016902923584,-0.44965600967407227,0.33617937564849854
1707603221095081200,0.776081298828125,-1.0145072937011719,-0.8322854042053223,1.0433685779571533
1707603221113974800,0.794974853515625,-1.4576029777526855,-0.7662677764892578,0.8766040802001953
1707603221132868400,0.813868408203125,-0.8166317939758301,-0.3976764678955078,0.6370387077331543
1707603221151761700,0.83276171875,-1.6189517974853516,1.9482460021972656,-1.9343348741531372
1707603221170655200,0.8516552734375,-2.3664920330047607,1.6120758056640625,-1.6430819034576416
1707603221189548800,0.870548828125,-1.36899995803833,0.26079607009887695,-1.2092044353485107
1707603221208442400,0.8894423828125,0.32384204864501953,0.21931076049804688,-0.4945216178894043
1707603221227336000,0.9083359375,1.738504409790039,0.23437118530273438,0.6398510932922363
1707603221246229500,0.9272294921875,0.5909109115600586,0.3870668411254883,1.0805203914642334
1707603221265123000,0.946123046875,2.2618327140808105,0.29137086868286133,1.6863443851470947
1707603221284016600,0.9650166015625,0.9893488883972168,-0.11954832077026367,0.6216402053833008
1707603221302910200,0.98391015625,2.1458377838134766,-0.6512255668640137,0.4359409809112549
1707603221321803500,1.002803466796875,2.4386863708496094,-0.7812671661376953,0.3069188594818115
1707603221340697000,1.021697021484375,1.6882939338684082,-0.7565274238586426,0.8107783794403076
1707603221359590700,1.040590576171875,1.7700176239013672,-0.7709999084472656,1.3984034061431885
1707603221378484200,1.059484130859375,1.3852300643920898,0.5008540153503418,-0.1221773624420166
1707603221397377800,1.078377685546875,0.4202384948730469,-0.4491848945617676,-0.583949089050293
1707603221416271400,1.097271240234375,-0.2839241027832031,-1.0591278076171875,-2.5207290649414062
1707603221435165000,1.1161650390625,-0.6812863349914551,-0.3276548385620117,-1.948845624923706
1707603221454058500,1.13505859375,-1.2575221061706543,0.046242713928222656,-0.5653729438781738
1707603221472952000,1.1539521484375,-0.7693576812744141,0.38439083099365234,-0.8564155101776123
1707603221491845600,1.172845703125,-1.2018616199493408,0.13803386688232422,-1.119788646697998
1707603221510739000,1.191739013671875,-1.9191619157791138,0.4453697204589844,-0.7918572425842285
1707603221529632500,1.210632568359375,-2.2256150245666504,0.3886232376098633,-0.28107404708862305
1707603221548526000,1.229526123046875,-1.8898193836212158,0.4335803985595703,-0.11976957321166992
1707603221567419600,1.248419677734375,-1.6649495363235474,0.7622833251953125,0.38321781158447266
1707603221586313200,1.267313232421875,-0.7597005367279053,0.8486442565917969,1.1269421577453613
1707603221605206800,1.286206787109375,-0.2579808235168457,0.6072216033935547,1.5874953269958496
1707603221624100400,1.305100341796875,-0.1973111629486084,-0.15795087814331055,1.0488896369934082
1707603221642994000,1.323993896484375,-0.14721369743347168,-0.5509810447692871,0.24683809280395508
1707603221661887500,1.342887451171875,-0.057363271713256836,-0.7625746726989746,0.09745502471923828
1707603221680781000,1.361781005859375,0.00937199592590332,-0.9036173820495605,-0.2932624816894531
1707603221699674400,1.38067431640625,-0.15990543365478516,-0.8357381820678711,-0.4790005683898926
1707603221718568000,1.39956787109375,-0.21027040481567383,-0.4600210189819336,-0.30501389503479004
1707603221737461500,1.41846142578125,-0.14510416984558105,-0.050154685974121094,0.07309818267822266
1707603221756355000,1.43735498046875,0.09035229682922363,-0.03856086730957031,0.05505037307739258
1707603221775248600,1.45624853515625,0.20207667350769043,0.1922769546508789,-0.28386569023132324
1707603221794142200,1.47514208984375,0.06853485107421875,0.1599111557006836,-0.2818336486816406
1707603221813035800,1.494035888671875,-0.029489517211914062,0.21641063690185547,-0.09845304489135742
1707603221831929300,1.512929443359375,-0.04632925987243652,0.31980323791503906,-0.14954328536987305
1707603221850823000,1.531822998046875,-0.07655978202819824,0.1960134506225586,-0.13213896751403809
1707603221869716500,1.550716552734375,-0.20870089530944824,-0.0025415420532226562,-0.08250617980957031
1707603221888609800,1.56960986328125,-0.16422486305236816,-0.1153249740600586,-0.026161670684814453
1707603221907503400,1.58850341796875,-0.15015959739685059,-0.08758354187011719,0.03435802459716797
1707603221926397000,1.60739697265625,-0.22552084922790527,-0.06612396240234375,-0.10027503967285156
1707603221945290500,1.62629052734375,-0.34833836555480957,-0.23422765731811523,-0.2073194980621338
1707603221964184000,1.64518408203125,-0.2626650333404541,-0.5577449798583984,-0.3575911521911621
1707603221983077600,1.66407763671875,-0.24741363525390625,-0.7684564590454102,-0.41233205795288086
1707603222001971200,1.68297119140625,-0.2630271911621094,-0.6503820419311523,-0.42139101028442383
1707603222020864800,1.70186474609375,-0.9163329601287842,-0.630401611328125,-0.1505730152130127
1707603222039758300,1.72075830078125,-0.6329777240753174,-0.27210092544555664,-0.04220414161682129
1707603222058651600,1.739651611328125,-0.03341388702392578,-0.1739211082458496,0.036031246185302734
1707603222077545200,1.758545166015625,0.2028665542602539,-0.14818954467773438,0.5992767810821533
1707603222096438800,1.777438720703125,0.3957791328430176,0.33087778091430664,1.1215434074401855
1707603222115332400,1.796332275390625,0.5494165420532227,0.6400027275085449,1.0711097717285156
1707603222134226000,1.815225830078125,0.49532508850097656,0.5233945846557617,0.6165704727172852
1707603222153119500,1.834119384765625,0.1806044578552246,0.1866612434387207,0.36006784439086914
1707603222172013000,1.853012939453125,-0.25661182403564453,-0.04505300521850586,0.018076419830322266
1707603222190906600,1.87190673828125,-0.4129009246826172,0.07521724700927734,-0.0775904655456543
1707603222209800200,1.89080029296875,-0.0472559928894043,0.015350341796875,-0.09581637382507324
1707603222228693800,1.90969384765625,0.47063255310058594,-0.02859783172607422,-0.30038976669311523
1707603222247587000,1.928587158203125,0.8452997207641602,0.015213489532470703,-0.23962974548339844
1707603222266480600,1.947480712890625,0.9582805633544922,0.0483856201171875,0.03972673416137695
1707603222285374200,1.966374267578125,0.7424182891845703,-0.008236408233642578,0.2216939926147461
1707603222304267800,1.985267822265625,0.4170842170715332,-0.07956743240356445,0.14060115814208984
1707603222323161300,2.004161376953125,0.11699581146240234,-0.020537376403808594,-0.012958526611328125
1707603222342055000,2.023054931640625,-0.09924888610839844,0.03664064407348633,-0.019458770751953125
1707603222360948500,2.041948486328125,-0.0820012092590332,0.10257339477539062,0.04001760482788086
1707603222379842000,2.060842041015625,-0.19019699096679688,0.12163639068603516,0.03327798843383789
1707603222398735600,2.079735595703125,-0.3302180767059326,0.1370983123779297,-0.047916412353515625
1707603222417629200,2.098629150390625,-0.5444610118865967,0.07253599166870117,-0.10990571975708008
1707603222436522500,2.1175224609375,-0.6925549507141113,-0.021333694458007812,-0.28460121154785156
1707603222455416000,2.136416015625,-0.7374544143676758,-0.08834314346313477,-0.24170637130737305
1707603222474309600,2.1553095703125,-0.4851093292236328,-0.12459325790405273,-0.28020763397216797
1707603222493203200,2.174203125,-0.15094661712646484,-0.1383523941040039,-0.18924999237060547
1707603222512096800,2.1930966796875,-0.15021514892578125,-0.12616348266601562,0.04514265060424805
1707603222530990300,2.211990234375,-0.09784841537475586,-0.11069631576538086,0.2550482749938965
1707603222549884000,2.2308837890625,0.43151044845581055,-0.46335506439208984,0.17169427871704102
1707603222568777500,2.249777587890625,0.8562726974487305,-1.182210922241211,-0.48222923278808594
1707603222587671000,2.268671142578125,1.0262422561645508,-1.4321441650390625,-0.7921342849731445
1707603222606564400,2.287564453125,0.8462159633636475,-1.1096477508544922,-1.5798487663269043
1707603222625458000,2.3064580078125,1.346332311630249,-0.8301992416381836,-1.4882392883300781
1707603222644351500,2.3253515625,1.9793510437011719,-0.5840435028076172,-1.528109073638916
1707603222663245000,2.3442451171875,2.1108176708221436,-0.21079158782958984,-2.056065082550049
1707603222682138600,2.363138671875,1.1299071311950684,0.09258365631103516,-1.9226317405700684
1707603222701032200,2.3820322265625,0.04481625556945801,0.3990774154663086,-1.9875080585479736
1707603222719925800,2.40092578125,-1.1033604145050049,1.4646854400634766,-3.1242964267730713
1707603222738819300,2.4198193359375,-1.5826313495635986,1.6206035614013672,-3.311089038848877
1707603222757713000,2.438712890625,-1.2089145183563232,0.800288200378418,-2.3355441093444824
1707603222776606500,2.4576064453125,-0.3128185272216797,1.2347631454467773,-0.9240469932556152
1707603222795499800,2.476499755859375,-0.05734562873840332,2.188312530517578,0.5613460540771484
1707603222814393300,2.495393310546875,-0.13852524757385254,1.921957015991211,2.048614025115967
1707603222833287000,2.514286865234375,-0.030308008193969727,1.1280574798583984,2.919600486755371
1707603222852180500,2.533180419921875,0.18139266967773438,-0.025864601135253906,2.8484086990356445
1707603222871074000,2.552073974609375,1.272615909576416,-1.1082038879394531,3.5562448501586914
1707603222889967600,2.570967529296875,2.255556583404541,-0.9517941474914551,5.668969631195068
1707603222908861200,2.589861083984375,2.3368749618530273,-0.09687137603759766,7.577447891235352
1707603222927754800,2.608754638671875,1.0892177820205688,-0.0012598037719726562,8.547384262084961
1707603222946648300,2.6276484375,-0.514025092124939,-0.6807346343994141,7.162131309509277
1707603222965542000,2.6465419921875,-1.7790589332580566,-1.705988883972168,4.900151252746582
1707603222984435200,2.665435302734375,-2.0078318119049072,-2.428354263305664,1.8000588417053223
1707603223003328800,2.684328857421875,-2.175962209701538,-3.175027370452881,-0.9156670570373535
1707603223022222300,2.703222412109375,-2.294548511505127,-3.6424002647399902,-3.671441078186035
1707603223041116000,2.722115966796875,-1.1873161792755127,-3.154451847076416,-5.2946391105651855
1707603223060009500,2.741009521484375,0.21186065673828125,-2.6515235900878906,-6.120316505432129
1707603223078903000,2.759903076171875,-0.9153203964233398,-2.952930450439453,-7.350949287414551
1707603223097796600,2.778796630859375,-0.1899857521057129,-2.348557472229004,-9.625414848327637
1707603223116690200,2.797690185546875,0.15681231021881104,-1.7605500221252441,-11.113730430603027
1707603223135583700,2.816583740234375,1.5733500719070435,0.5941324234008789,-8.601131439208984
1707603223154477300,2.835477294921875,5.375378608703613,3.7908968925476074,-5.492529392242432
1707603223173370600,2.85437060546875,8.279725074768066,6.833792209625244,-1.7997169494628906
1707603223192264200,2.87326416015625,5.26334810256958,7.691726207733154,1.3108949661254883
1707603223211157800,2.89215771484375,2.4448320865631104,7.666161060333252,4.116562366485596
1707603223230051300,2.91105126953125,2.8108911514282227,5.804125785827637,6.270841598510742
1707603223248945000,2.92994482421875,2.626682758331299,3.465670585632324,7.982149124145508
1707603223267838500,2.94883837890625,1.6290136575698853,2.1933512687683105,10.993101119995117
1707603223286732000,2.96773193359375,-0.8737514615058899,0.0717625617980957,11.308252334594727
1707603223305625600,2.98662548828125,-2.9216291904449463,-3.0959978103637695,8.269726753234863
1707603223324519200,3.005519287109375,-2.456912040710449,-4.202181816101074,5.831566333770752
1707603223343412500,3.02441259765625,-1.8419969081878662,-4.017273902893066,5.103385925292969
1707603223362306000,3.04330615234375,-2.8117313385009766,-3.7785139083862305,4.962048053741455
1707603223381199600,3.06219970703125,-2.893627166748047,-4.852363109588623,3.0686182975769043
1707603223400093200,3.08109326171875,-2.6226747035980225,-6.022449970245361,0.13292741775512695
1707603223418986800,3.09998681640625,-1.8593835830688477,-6.205286026000977,-2.4907145500183105
1707603223437880300,3.11888037109375,-0.9437639117240906,-6.115475654602051,-4.367619037628174
1707603223456774000,3.13777392578125,-1.6272019147872925,-5.092781066894531,-5.792224884033203
1707603223475667500,3.15666748046875,-4.545811176300049,-2.5940051078796387,-6.0708699226379395
1707603223494561000,3.17556103515625,-5.919017314910889,0.8016867637634277,-4.662623405456543
1707603223513454600,3.19445458984375,-6.1146240234375,4.450591087341309,-3.413663864135742
1707603223532348000,3.213347900390625,-6.1035332679748535,5.1285247802734375,-2.4868454933166504
1707603223551241500,3.232241455078125,-4.308988571166992,4.536313056945801,-1.8044962882995605
1707603223570135300,3.25113525390625,-0.11976218223571777,2.728181838989258,-1.133094310760498
1707603223589028900,3.27002880859375,3.778217077255249,1.3361444473266602,-0.5336122512817383
1707603223607922200,3.288922119140625,5.489295959472656,0.41376161575317383,-0.05164623260498047
1707603223626815700,3.307815673828125,5.319276809692383,-0.0893545150756836,0.2073535919189453
1707603223645709300,3.326709228515625,4.159880638122559,-0.16219806671142578,0.49393510818481445
1707603223664603000,3.345602783203125,2.0335028171539307,0.09938526153564453,1.044367790222168
1707603223683496400,3.364496337890625,0.34191250801086426,0.011419296264648438,1.0026836395263672
1707603223702390000,3.38339013671875,0.3058931827545166,-0.03874349594116211,1.024383544921875
1707603223721283600,3.40228369140625,0.30969858169555664,-0.1372852325439453,1.210646629333496
1707603223740177200,3.42117724609375,0.6432836055755615,-0.2826571464538574,1.2958788871765137
1707603223759070700,3.44007080078125,0.548565149307251,-0.578585147857666,1.0016632080078125
1707603223777964300,3.45896435546875,0.18233418464660645,-0.7591876983642578,0.5135669708251953
1707603223796857600,3.477857666015625,-0.11894369125366211,-0.6747236251831055,0.41098451614379883
1707603223815751200,3.496751220703125,-0.18222522735595703,-0.6118545532226562,0.21678638458251953
1707603223834644700,3.515644775390625,0.19165515899658203,-0.7545733451843262,-0.3078165054321289
1707603223853538300,3.534538330078125,0.6411747932434082,-0.8108773231506348,-0.5963950157165527
1707603223872431900,3.553431884765625,0.8859171867370605,-0.7262353897094727,-0.7005553245544434
1707603223891325400,3.572325439453125,0.9982457160949707,-0.5590734481811523,-0.62774658203125
1707603223910219000,3.591218994140625,0.7985177040100098,-0.4549589157104492,-0.5767917633056641
1707603223929112600,3.610112548828125,0.25826072692871094,-0.12066173553466797,-0.23144292831420898
1707603223948006100,3.629006103515625,0.03706073760986328,-0.008428096771240234,-0.24012184143066406
1707603223966899700,3.647899658203125,0.1778407096862793,0.04951667785644531,-0.2964344024658203
1707603223985793000,3.66679296875,0.5261268615722656,0.03530693054199219,-0.34235429763793945
1707603224004686600,3.6856865234375,0.5879979133605957,-0.11956119537353516,-0.4597768783569336
1707603224023580200,3.704580078125,0.5705752372741699,-0.28699350357055664,-0.6450343132019043
1707603224042473700,3.7234736328125,0.2627401351928711,-0.3230729103088379,-0.6747303009033203
1707603224061367300,3.7423671875,-0.2527008056640625,-0.2589240074157715,-0.6312732696533203
1707603224080260900,3.7612607421875,-0.7505757808685303,-0.027488231658935547,-0.5484404563903809
1707603224099154400,3.780154541015625,-0.9913372993469238,0.05694246292114258,-0.5729336738586426
1707603224118048000,3.799048095703125,-1.021470308303833,0.0660252571105957,-1.028092384338379
1707603224136941600,3.817941650390625,-0.6633443832397461,0.1386861801147461,-1.5360045433044434
1707603224155835000,3.8368349609375,0.2558879852294922,0.2782163619995117,-1.8613653182983398
1707603224174728400,3.855728515625,1.7789149284362793,0.4117155075073242,-2.322408676147461
1707603224193622000,3.8746220703125,3.213320732116699,0.570310115814209,-3.3404366970062256
1707603224212515600,3.893515625,4.153375148773193,0.722996711730957,-4.209488868713379
1707603224231409200,3.9124091796875,4.736755847930908,0.8052582740783691,-4.126562118530273
1707603224250302700,3.931302734375,5.37407922744751,0.8760151863098145,-2.823150873184204
1707603224269196300,3.9501962890625,5.764983177185059,1.5017294883728027,0.22881174087524414
1707603224288089900,3.96908984375,5.3981451988220215,2.9346251487731934,4.632184982299805
1707603224306983400,3.9879833984375,3.0421407222747803,3.5343236923217773,8.410330772399902
1707603224325877000,4.006876953125,-0.3309519290924072,3.6055197715759277,10.798133850097656
1707603224344770600,4.0257705078125,-2.2576937675476074,2.3454651832580566,12.183504104614258
1707603224363664100,4.0446640625,-3.7220406532287598,-0.23857593536376953,11.527534484863281
1707603224382557700,4.0635576171875,-5.219210624694824,-2.9228973388671875,8.660293579101562
1707603224401451300,4.082451171875,-5.232480525970459,-4.779097557067871,5.528597354888916
1707603224420344600,4.101344482421875,-4.624017715454102,-6.475445747375488,0.9582014083862305
1707603224439238100,4.120238037109375,-3.822706699371338,-6.994403839111328,-2.469421863555908
1707603224458131700,4.139131591796875,-2.30747652053833,-7.965786457061768,-5.730449199676514
1707603224477025300,4.158025390625,-0.8281511068344116,-9.049259185791016,-8.422906875610352
1707603224495918800,4.1769189453125,0.6777015924453735,-9.505928993225098,-8.860239028930664
1707603224514812400,4.1958125,1.7481753826141357,-8.812520980834961,-7.872925281524658
1707603224533706000,4.2147060546875,0.7116842865943909,-7.1256208419799805,-6.3086113929748535
1707603224552599600,4.233599609375,0.21706156432628632,-3.599222183227539,-5.615655899047852
1707603224571493000,4.2524931640625,0.4206075072288513,0.2014451026916504,-5.466005802154541
1707603224590386700,4.27138671875,1.1653423309326172,4.14952278137207,-4.074437141418457
1707603224609280000,4.290280029296875,1.3047136068344116,8.151004791259766,-1.704096794128418
1707603224628173600,4.309173583984375,1.248352289199829,10.499479293823242,0.15160894393920898
1707603224647067100,4.328067138671875,0.8281870484352112,10.573896408081055,1.801100730895996
1707603224665960700,4.346960693359375,1.7585015296936035,9.156469345092773,2.8521666526794434
1707603224684854300,4.365854248046875,0.7771924138069153,7.4313201904296875,5.637513637542725
1707603224703747800,4.384747802734375,-1.4286783933639526,5.483778476715088,8.444725036621094
1707603224722641400,4.403641357421875,-4.520605564117432,3.8169474601745605,11.350166320800781
1707603224741535000,4.422534912109375,-7.045490741729736,-0.27298879623413086,12.148658752441406
1707603224760428500,4.441428466796875,-5.7378034591674805,-3.0970239639282227,10.688243865966797
1707603224779322000,4.460322021484375,-3.3180747032165527,-4.446310043334961,9.251199722290039
1707603224798215700,4.479215576171875,-3.2859864234924316,-5.031619071960449,7.6933979988098145
1707603224817109200,4.498109130859375,-4.045797348022461,-5.176666259765625,6.612602233886719
1707603224836002800,4.5170029296875,-2.853935956954956,-7.152480125427246,3.240927219390869
1707603224854896000,4.535896240234375,1.1628391742706299,-8.382737159729004,-1.2820734977722168
1707603224873789700,4.554789794921875,5.149751663208008,-9.650567054748535,-5.594532489776611
1707603224892683300,4.573683349609375,6.720676422119141,-9.81965160369873,-7.877628803253174
1707603224911576800,4.592576904296875,4.829479694366455,-9.170337677001953,-7.992059707641602
1707603224930470400,4.611470458984375,2.3524646759033203,-7.601217746734619,-7.08254337310791
1707603224949364000,4.630364013671875,0.2458866834640503,-5.221415042877197,-7.19989538192749
1707603224968257500,4.649257568359375,0.1310182809829712,-2.332602024078369,-7.1020941734313965
1707603224987151000,4.668151123046875,1.6350868940353394,0.6474237442016602,-6.458438396453857
1707603225006044700,4.687044677734375,3.5491504669189453,4.2248101234436035,-4.145565032958984
1707603225024938200,4.705938232421875,4.431779861450195,7.382755756378174,-2.092738151550293
1707603225043831600,4.72483154296875,1.9474680423736572,8.544782638549805,-0.6706547737121582
1707603225062725000,4.74372509765625,-0.7074493169784546,8.465033531188965,0.7694911956787109
1707603225081618700,4.76261865234375,-1.774314522743225,8.006927490234375,3.027101516723633
1707603225100512300,4.78151220703125,-2.0630152225494385,6.7303690910339355,5.031175136566162
1707603225119405800,4.80040576171875,-3.5550081729888916,4.277774333953857,5.895856857299805
1707603225138299400,4.81929931640625,-5.087416648864746,1.521453857421875,5.691143989562988
1707603225157193000,4.83819287109375,-5.607404708862305,-0.7371354103088379,5.793870449066162
1707603225176086500,4.85708642578125,-4.334616184234619,-2.032719135284424,6.942563533782959
1707603225194980000,4.87597998046875,-3.393246650695801,-2.124101161956787,9.005229949951172
1707603225213873700,4.894873779296875,-3.474720001220703,-2.843008041381836,9.588531494140625
1707603225232767200,4.913767333984375,-3.2028255462646484,-4.642402648925781,7.604850769042969
1707603225251660800,4.932660888671875,-2.035210609436035,-6.293356895446777,4.362078666687012
1707603225270554400,4.951554443359375,0.11895751953125,-7.421144008636475,1.3711023330688477
1707603225289448000,4.970447998046875,2.1473875045776367,-7.382988929748535,-0.24549436569213867
1707603225308341200,4.98934130859375,2.742513656616211,-7.267944812774658,-1.6238772869110107
1707603225327234800,5.00823486328125,3.5155835151672363,-6.745473861694336,-2.853517532348633
1707603225365022000,5.04602197265625,5.393340110778809,-4.417416095733643,-4.429490089416504
1707603225383915500,5.06491552734375,4.534151554107666,-1.7077302932739258,-5.009666919708252
1707603225402809000,5.08380908203125,3.256937026977539,1.629091739654541,-5.613404273986816
1707603225421702700,5.10270263671875,2.037454605102539,4.330402374267578,-6.64169454574585
1707603225440596200,5.12159619140625,1.7591426372528076,6.8071722984313965,-6.221412181854248
1707603225459489800,5.14048974609375,1.3512908220291138,9.505277633666992,-3.937999963760376
1707603225478383000,5.159383056640625,-0.8162150382995605,10.951154708862305,-1.6910061836242676
1707603225497276700,5.178276611328125,-4.350377082824707,10.52590560913086,-0.5511736869812012
1707603225516170200,5.197170166015625,-7.326499938964844,7.956451892852783,0.17638444900512695
1707603225535063800,5.216063720703125,-7.363578796386719,3.305051326751709,1.693453311920166
1707603225553957400,5.234957275390625,-4.137320518493652,-1.6748957633972168,5.040012359619141
1707603225572851000,5.253850830078125,1.503257155418396,-4.854288101196289,8.399718284606934
1707603225591744500,5.27274462890625,5.436686992645264,-5.628395080566406,10.159906387329102
1707603225610638000,5.29163818359375,4.2257490158081055,-5.9764251708984375,9.269330978393555
1707603225629531600,5.31053173828125,0.3810451030731201,-6.365534782409668,6.715611934661865
1707603225648425200,5.32942529296875,-2.5254592895507812,-6.605152606964111,4.422424793243408
1707603225667318800,5.34831884765625,-4.013269424438477,-6.743180751800537,2.2353110313415527
1707603225686212400,5.36721240234375,-4.998204231262207,-6.632503509521484,-0.6695437431335449
1707603225705106000,5.38610595703125,-4.186803817749023,-6.027218818664551,-3.759925365447998
1707603225723999500,5.40499951171875,-1.9204037189483643,-4.735369682312012,-5.806175708770752
1707603225742892800,5.423892822265625,0.1455899477005005,-2.434767484664917,-6.974449157714844
1707603225761786400,5.442786376953125,1.9191399812698364,0.8494086265563965,-7.641691207885742
1707603225780680000,5.461679931640625,2.9951558113098145,4.267577171325684,-7.290468215942383
1707603225799573500,5.480573486328125,3.694521427154541,7.361741542816162,-6.03714656829834
1707603225818467000,5.499467041015625,5.072554588317871,8.881135940551758,-4.869800090789795
1707603225837360600,5.518360595703125,6.160846710205078,9.50373363494873,-2.6149215698242188
1707603225856254200,5.537254150390625,2.682321071624756,8.915044784545898,0.5590085983276367
1707603225875147800,5.556147705078125,-1.9891395568847656,7.015253067016602,3.994439125061035
1707603225894041300,5.575041259765625,-5.4597296714782715,4.593379020690918,7.165806770324707
1707603225912935000,5.593934814453125,-7.718436241149902,1.865300178527832,9.824254035949707
1707603225931828200,5.612828125,-8.271594047546387,-1.7627341747283936,10.331732749938965
1707603225950721800,5.6317216796875,-5.163071155548096,-3.781911849975586,9.976903915405273
1707603225969615400,5.650615478515625,-2.8105056285858154,-4.451768398284912,9.807926177978516
1707603225988509200,5.66950927734375,-1.921496868133545,-5.456508159637451,8.764507293701172
1707603226007402500,5.688402587890625,-1.1448028087615967,-6.517995357513428,5.423013687133789
1707603226026296000,5.707296142578125,0.5529999732971191,-7.800301551818848,1.6091361045837402
1707603226045189600,5.726189697265625,3.4805469512939453,-8.699894905090332,-2.7004337310791016
1707603226064083200,5.745083251953125,4.267972469329834,-9.56861686706543,-7.697004318237305
1707603226082976800,5.763976806640625,1.8072925806045532,-9.059338569641113,-10.33770751953125
1707603226101870300,5.782870361328125,0.6999689936637878,-7.294232368469238,-10.192960739135742
1707603226120764000,5.801763916015625,2.2045867443084717,-4.427087783813477,-9.039649963378906
1707603226139657500,5.820657470703125,4.102298259735107,-0.4204549789428711,-7.7255659103393555
1707603226158551000,5.839551025390625,5.520895481109619,4.049509525299072,-5.1428303718566895
1707603226177444400,5.8584443359375,5.113498210906982,7.021891117095947,-3.3840365409851074
1707603226196338000,5.877337890625,1.857464075088501,8.587041854858398,-1.1735310554504395
1707603226215231500,5.8962314453125,-1.7553565502166748,9.462677001953125,1.225090503692627
1707603226234125000,5.915125,-4.384226322174072,9.054510116577148,3.74945068359375
1707603226253018600,5.9340185546875,-5.294943332672119,7.362506866455078,5.651767730712891
1707603226271912200,5.952912109375,-5.3469367027282715,4.486894607543945,6.594455718994141
1707603226290805800,5.9718056640625,-4.827983379364014,1.6658153533935547,8.204682350158691
1707603226309699300,5.99069921875,-3.643557548522949,-1.169062614440918,8.494413375854492
1707603226328593000,6.009593017578125,-2.390495538711548,-3.66294527053833,7.224427223205566
1707603226347486500,6.028486572265625,-0.7056214213371277,-5.125765323638916,6.284965515136719
1707603226366380000,6.047380126953125,0.47799843549728394,-5.595399856567383,5.028265953063965
1707603226385273600,6.066273681640625,0.5371673703193665,-6.751992702484131,1.5301451683044434
1707603226404167200,6.085167236328125,0.7462047338485718,-7.745669841766357,-1.8644375801086426
1707603226423060700,6.104060791015625,2.02803373336792,-8.276969909667969,-5.063248634338379
1707603226441954000,6.1229541015625,2.8244283199310303,-8.360397338867188,-6.872898101806641
1707603226460847600,6.14184765625,2.342090129852295,-7.4082465171813965,-6.19575309753418
1707603226479741200,6.1607412109375,1.984520673751831,-4.742733001708984,-4.682347774505615
1707603226498634800,6.179634765625,1.8600815534591675,-1.8595423698425293,-4.555909156799316
1707603226517528300,6.1985283203125,1.6624528169631958,1.2545342445373535,-4.55187463760376
1707603226536422000,6.217421875,1.5989940166473389,5.119273662567139,-2.713545799255371
1707603226555315500,6.2363154296875,1.0279160737991333,8.382543563842773,0.5725598335266113
1707603226574209000,6.255208984375,-1.566619634628296,9.991409301757812,3.026545524597168
1707603226593102600,6.2741025390625,-4.3348774909973145,9.857154846191406,4.565689563751221
1707603226611996200,6.29299609375,-5.3520121574401855,7.947666645050049,5.583243370056152
1707603226630889700,6.3118896484375,-5.282089710235596,4.379370212554932,5.519191741943359
1707603226649783300,6.330783203125,-3.5098628997802734,2.0888800621032715,6.063872337341309
1707603226668676900,6.3496767578125,-2.1591997146606445,0.3890037536621094,7.376806259155273
1707603226687570400,6.3685703125,-2.1144373416900635,-1.505549430847168,7.057118892669678
1707603226706463700,6.387463623046875,-2.4114460945129395,-3.9139771461486816,5.3474860191345215
1707603226725357300,6.406357421875,-1.203441858291626,-5.74416971206665,2.3352842330932617
1707603226744251000,6.4252509765625,0.4292929768562317,-6.46196174621582,-0.5172314643859863
1707603226763144400,6.44414453125,2.0366291999816895,-7.039634704589844,-3.247511386871338
1707603226782038000,6.4630380859375,3.0501608848571777,-7.623566150665283,-5.620954513549805
1707603226800931600,6.481931640625,3.5763771533966064,-8.166205406188965,-6.071279048919678
1707603226819825200,6.5008251953125,4.197897911071777,-7.642664909362793,-4.275217056274414
1707603226838718700,6.51971875,3.087538003921509,-5.9719696044921875,-1.4523272514343262
1707603226857612300,6.5386123046875,-1.039614200592041,-3.5298824310302734,-0.9306459426879883
1707603226876505900,6.557505859375,-5.2090253829956055,-0.818171501159668,0.27544689178466797
1707603226895399400,6.5763994140625,-6.9657135009765625,1.779801368713379,1.5929837226867676
1707603226914293000,6.59529296875,-5.826119899749756,4.852211952209473,2.97507381439209
1707603226933186600,6.6141865234375,-3.946499824523926,7.303821563720703,5.1164469718933105
1707603226952080100,6.633080078125,-2.627150058746338,8.070146560668945,7.353851795196533
1707603226970973400,6.651973388671875,-0.19769501686096191,7.634842395782471,8.377893447875977
1707603226989867000,6.670866943359375,1.2089627981185913,6.04854679107666,10.06618595123291
1707603227008760600,6.689760498046875,2.3211658000946045,3.699582099914551,10.138830184936523
1707603227027654100,6.708654052734375,2.9186325073242188,0.45297718048095703,6.973341941833496
1707603227046547700,6.727547607421875,3.3168997764587402,-2.461965560913086,2.671011209487915
1707603227065441300,6.746441162109375,3.3766818046569824,-5.051606178283691,-0.9203550815582275
1707603227084334800,6.7653349609375,3.0643715858459473,-6.236350059509277,-4.017368316650391
1707603227103228400,6.784228515625,3.217607021331787,-7.215824127197266,-4.281414985656738
1707603227122122000,6.8031220703125,3.736703872680664,-7.994792938232422,-5.162400245666504
1707603227141015600,6.822015625,2.9257349967956543,-7.975384712219238,-6.912007808685303
1707603227159909000,6.8409091796875,1.4653692245483398,-7.98863410949707,-6.999942779541016
1707603227178802700,6.859802734375,0.3568413257598877,-7.208096504211426,-5.530815601348877
1707603227197696300,6.8786962890625,-0.17662310600280762,-5.414515972137451,-4.3384528160095215
1707603227216589600,6.897589599609375,-1.333446979522705,-1.9012198448181152,-4.029752731323242
1707603227235483100,6.916483154296875,-2.9922146797180176,0.9581995010375977,-2.4032649993896484
1707603227254376700,6.935376708984375,-3.7240796089172363,4.102051734924316,-0.44770926237106323
1707603227273270300,6.954270263671875,-3.5519838333129883,8.522086143493652,2.0217742919921875
1707603227292163800,6.973163818359375,-2.4363064765930176,10.75621509552002,3.738440752029419
1707603227311057400,6.992057373046875,-2.0629384517669678,10.14468765258789,4.977390289306641
1707603227329951000,7.010950927734375,-2.7689156532287598,6.982942581176758,6.549733638763428
1707603227348844500,7.029844482421875,-1.821099042892456,3.923069953918457,5.906649589538574
1707603227367738000,7.048738037109375,-0.5491088032722473,1.4396610260009766,3.902130603790283
1707603227386631700,7.067631591796875,0.893504798412323,-1.9061603546142578,1.8835270404815674
1707603227405525200,7.086525146484375,2.7200183868408203,-4.298018455505371,-0.6523337960243225
1707603227424418800,7.105418701171875,4.84777307510376,-6.568581581115723,-2.952852964401245
1707603227443312400,7.1243125,5.926172733306885,-8.11779499053955,-3.3609871864318848
1707603227462206000,7.1432060546875,4.920937538146973,-8.885030746459961,-2.8537204265594482
1707603227481099300,7.162099365234375,4.073007106781006,-9.116277694702148,-2.4237220287323
1707603227499992800,7.180992919921875,2.9716620445251465,-8.015631675720215,-1.8546788692474365
1707603227518886400,7.199886474609375,1.1287354230880737,-5.581446647644043,-1.6729668378829956
1707603227537780200,7.2187802734375,-0.5852017402648926,-2.250624656677246,-1.621525526046753
1707603227556673500,7.237673583984375,-3.1471188068389893,1.9746131896972656,-1.7228909730911255
1707603227575567000,7.256567138671875,-5.100790977478027,5.73892879486084,0.058304086327552795
1707603227594460700,7.275460693359375,-6.274806499481201,8.222880363464355,1.1086246967315674
1707603227613354200,7.294354248046875,-7.204446315765381,9.34448528289795,1.9534738063812256
1707603227632247800,7.313247802734375,-7.320511341094971,8.146581649780273,2.6693649291992188
1707603227651141400,7.332141357421875,-6.599193096160889,5.558681488037109,2.3888423442840576
1707603227670035000,7.351034912109375,-4.958047866821289,2.940166473388672,2.340365171432495
1707603227688928500,7.369928466796875,-2.850900173187256,0.25830554962158203,2.5349204540252686
1707603227707822000,7.388822021484375,-1.1817395687103271,-2.946882724761963,3.0182442665100098
1707603227726715600,7.407715576171875,0.47094225883483887,-5.899256229400635,1.626025676727295
1707603227745609000,7.42660888671875,6.9422736167907715,-6.9128313064575195,-1.8803071975708008
1707603227764502800,7.445502685546875,8.15439224243164,-7.054754734039307,-2.5135605335235596
1707603227783396400,7.464396240234375,7.193955898284912,-8.21496295928955,-0.8154928684234619
1707603227802290000,7.4832900390625,5.140010833740234,-9.399940490722656,0.17911839485168457
1707603227821183200,7.502183349609375,3.034438133239746,-8.188637733459473,-0.24859380722045898
1707603227840076800,7.521076904296875,0.6953494548797607,-5.955747604370117,-0.7032890319824219
1707603227858970400,7.539970458984375,-1.587515115737915,-2.671271800994873,-0.9979629516601562
1707603227877864000,7.558864013671875,-3.3108649253845215,0.46987247467041016,-0.9324493408203125
1707603227896757500,7.577757568359375,-4.343322277069092,4.508139133453369,0.11847734451293945
1707603227915651000,7.596651123046875,-5.192668914794922,8.926074028015137,0.4071011543273926
1707603227934544600,7.615544677734375,-6.41424036026001,12.231321334838867,-0.5303854942321777
1707603227953438200,7.634438232421875,-7.301056385040283,12.728157043457031,-1.383277416229248
1707603227972331800,7.653331787109375,-8.178457260131836,10.530000686645508,-1.066359519958496
1707603227991225000,7.67222509765625,-7.501659870147705,6.818729877471924,0.8462605476379395
1707603228010119000,7.691118896484375,-5.026824474334717,2.6517281532287598,2.548116683959961
1707603228029012500,7.710012451171875,-3.137838840484619,-1.541013240814209,2.648935317993164
1707603228047906000,7.728906005859375,2.4355757236480713,-4.404036521911621,1.949998378753662
1707603228066799400,7.74779931640625,4.064492225646973,-6.726020336151123,1.7402620315551758
1707603228085693000,7.76669287109375,5.5853166580200195,-9.361349105834961,1.718916893005371
1707603228104586500,7.78558642578125,6.445134162902832,-10.733466148376465,1.4996914863586426
1707603228123480000,7.80447998046875,6.561519145965576,-11.747903823852539,1.3565635681152344
1707603228142373600,7.82337353515625,5.388653755187988,-11.721267700195312,1.3869705200195312
1707603228161267200,7.84226708984375,2.7635934352874756,-10.183398246765137,0.7232766151428223
1707603228180160800,7.861160888671875,-0.6616024971008301,-7.560890197753906,-0.3465299606323242
1707603228199054300,7.880054443359375,-4.696040153503418,-3.354508399963379,-0.749995231628418
1707603228217948000,7.898947998046875,-6.8512067794799805,1.5239787101745605,-1.6509437561035156
1707603228236841500,7.917841552734375,-7.264690399169922,5.767495155334473,-3.476642608642578
1707603228255735000,7.936735107421875,-6.21453857421875,8.835166931152344,-4.231845378875732
1707603228274628600,7.955628662109375,-4.40145206451416,11.0715970993042,-3.087667942047119
1707603228293522200,7.974522216796875,-3.165778875350952,12.43132209777832,-0.9366765022277832
1707603228312415700,7.993415771484375,-2.9224557876586914,11.205604553222656,1.7361292839050293
1707603228331309000,8.01230908203125,-2.6307730674743652,7.964488983154297,3.4169723987579346
1707603228350202600,8.03120263671875,-1.064821481704712,4.074258804321289,3.1399717330932617
1707603228387989800,8.06898974609375,1.1531776189804077,-3.5449280738830566,1.5535831451416016
1707603228406883300,8.08788330078125,2.424849510192871,-6.994108200073242,1.7817606925964355
1707603228425777000,8.10677685546875,4.437056541442871,-9.64623737335205,1.9664454460144043
1707603228444670500,8.12567041015625,5.670138359069824,-12.141822814941406,1.7939977645874023
1707603228463564000,8.14456396484375,6.015718460083008,-13.820852279663086,2.3365259170532227
1707603228482457600,8.16345751953125,5.7221879959106445,-13.621959686279297,2.31685733795166
1707603228501351200,8.18235107421875,3.9229423999786377,-12.785041809082031,2.179783344268799
1707603228520244700,8.20124462890625,0.5073316097259521,-10.393604278564453,2.6042346954345703
1707603228539138300,8.22013818359375,-3.0531373023986816,-6.230607986450195,2.830228805541992
1707603228558032000,8.239031982421874,-4.7860107421875,-1.173689603805542,2.3251380920410156
1707603228576925400,8.257925537109376,-5.4685187339782715,3.4602694511413574,-0.11602783203125
1707603228595818800,8.27681884765625,-5.96544075012207,8.323413848876953,-2.137617588043213
1707603228614712300,8.29571240234375,-6.653144359588623,13.260538101196289,-2.750819206237793
1707603228633606000,8.31460595703125,-7.311243057250977,16.425512313842773,-4.431807518005371
1707603228652499500,8.33349951171875,-8.81521987915039,16.137065887451172,-5.509822845458984
1707603228671393000,8.35239306640625,-9.591012001037598,13.659215927124023,-4.784278869628906
1707603228690286600,8.37128662109375,-9.213240623474121,9.566189765930176,-2.375119209289551
1707603228709180200,8.39018017578125,-6.594540119171143,5.350763320922852,0.3665504455566406
1707603228728073700,8.40907373046875,-4.273078918457031,0.6825294494628906,2.8280982971191406
1707603228746967300,8.42796728515625,-2.712089776992798,-4.30656623840332,3.6006860733032227
1707603228765860900,8.44686083984375,0.09500490128993988,-8.768392562866211,3.7214841842651367
1707603228784754400,8.46575439453125,3.238220691680908,-11.788481712341309,3.7156801223754883
1707603228803648000,8.48464794921875,5.925487995147705,-13.513874053955078,3.8850536346435547
1707603228822541600,8.50354150390625,7.624756813049316,-14.266290664672852,2.732264518737793
1707603228841435000,8.522434814453124,7.568526744842529,-14.334943771362305,0.5694799423217773
1707603228860328400,8.541328369140626,5.105403423309326,-13.754426956176758,-0.9015512466430664
1707603228879222300,8.56022216796875,0.46199291944503784,-12.85682487487793,0.5040469169616699
1707603228898115800,8.57911572265625,0.15033148229122162,-9.762996673583984,1.9250807762145996
1707603228917009200,8.598009033203125,0.6996231079101562,-5.046733856201172,2.3308558464050293
1707603228935902700,8.61690283203125,-1.2822935581207275,1.6738061904907227,2.548464775085449
1707603228954796300,8.63579638671875,-3.509683609008789,9.152261734008789,0.7930216789245605
1707603228973689900,8.65468994140625,-6.6967597007751465,14.372611999511719,-1.4383630752563477
1707603228992583400,8.67358349609375,-9.488480567932129,17.308429718017578,-2.7376837730407715
1707603229011477000,8.69247705078125,-10.719794273376465,17.585237503051758,-2.632594108581543
1707603229030370600,8.71137060546875,-10.465658187866211,14.957759857177734,-1.910715103149414
1707603229049264000,8.73026416015625,-7.567770481109619,10.627213478088379,-1.1771411895751953
1707603229068157700,8.74915771484375,-5.563889980316162,5.151349067687988,0.26062774658203125
1707603229087051300,8.76805126953125,-3.3595292568206787,-0.08236312866210938,1.3086919784545898
1707603229105944800,8.78694482421875,-1.1661698818206787,-4.895689010620117,2.155825614929199
1707603229124838400,8.80583837890625,1.1629619598388672,-9.73651123046875,2.423124313354492
1707603229143732000,8.82473193359375,3.5569310188293457,-13.671390533447266,2.970341682434082
1707603229162625500,8.84362548828125,5.058568954467773,-15.935976028442383,2.9565610885620117
1707603229181518800,8.862518798828125,5.82283353805542,-17.481842041015625,1.4053659439086914
1707603229200412400,8.881412353515625,7.524568557739258,-17.966337203979492,-0.7128896713256836
1707603229219306000,8.900305908203125,9.61305046081543,-16.18978500366211,-2.1757445335388184
1707603229238199800,8.91919970703125,2.9289495944976807,-15.516387939453125,0.8936529159545898
1707603229257093000,8.938093017578124,-1.411022424697876,-10.898092269897461,3.276036262512207
1707603229275986700,8.956986572265626,-4.388266563415527,-2.9074106216430664,3.2351746559143066
1707603229294880300,8.97588037109375,-7.889255523681641,7.8036065101623535,-0.09954547882080078
1707603229313773800,8.99477392578125,-13.158878326416016,13.630800247192383,-4.809976100921631
1707603229332667400,9.01366748046875,-16.78828239440918,16.08722496032715,-6.694310188293457
1707603229351561000,9.03256103515625,-18.189043045043945,16.047889709472656,-4.628939151763916
1707603229370454500,9.05145458984375,-15.81702709197998,14.494457244873047,-3.1515564918518066
1707603229389348000,9.07034814453125,-11.600360870361328,10.572270393371582,-1.3583178520202637
1707603229408241700,9.08924169921875,-6.643246173858643,5.609816551208496,0.8170838356018066
1707603229427135200,9.10813525390625,-3.5923566818237305,0.16036653518676758,2.6889333724975586
1707603229446028800,9.12702880859375,-0.6704290509223938,-6.036606311798096,3.2278566360473633
1707603229464922400,9.14592236328125,2.3837666511535645,-12.684455871582031,3.2473838329315186
1707603229483816000,9.16481591796875,5.38918399810791,-17.717470169067383,3.512411594390869
1707603229502709200,9.183709228515625,7.867401599884033,-19.265857696533203,2.53159761428833
1707603229521602800,9.202602783203124,11.07768440246582,-18.65578269958496,0.15558290481567383
1707603229540496400,9.221496337890626,12.618730545043945,-16.95610809326172,-2.022407054901123
1707603229559390000,9.240389892578126,5.108590126037598,-14.37841510772705,-0.015903472900390625
1707603229578283500,9.259283447265625,-1.9199419021606445,-8.931694030761719,1.6715989112854004
1707603229597177000,9.278177001953125,-5.13944149017334,1.103193759918213,0.8797407150268555
1707603229616070700,9.297070556640625,-9.42457389831543,9.598000526428223,-1.514307975769043
1707603229634964200,9.315964111328125,-13.55828857421875,14.504432678222656,-3.840725898742676
1707603229653857800,9.33485791015625,-14.792052268981934,16.87839698791504,-4.400763511657715
1707603229672751400,9.35375146484375,-11.27322769165039,17.25986099243164,-3.4358696937561035
1707603229691645000,9.37264501953125,-8.414785385131836,15.311833381652832,-1.5287785530090332
1707603229710538500,9.39153857421875,-7.532209873199463,10.916542053222656,0.5396089553833008
1707603229729432000,9.41043212890625,-6.301225185394287,5.291221618652344,2.433070659637451
1707603229748325600,9.42932568359375,-3.3188843727111816,-0.7377772331237793,3.274059772491455
1707603229767219200,9.44821923828125,-0.04601013660430908,-7.284934997558594,3.019324541091919
1707603229786112800,9.46711279296875,3.6641407012939453,-13.733404159545898,2.3899407386779785
1707603229805006300,9.48600634765625,6.611888885498047,-17.812191009521484,1.4326577186584473
1707603229823900000,9.50489990234375,7.692275047302246,-19.09827423095703,-0.40772199630737305
1707603229842793200,9.523793212890626,8.116927146911621,-19.802879333496094,-2.371199131011963
1707603229861686800,9.542686767578125,7.201535701751709,-19.029752731323242,-2.776393413543701
1707603229880580400,9.561580322265625,3.3254570960998535,-16.817468643188477,-1.005101203918457
1707603229899474200,9.58047412109375,-0.8325173854827881,-12.252157211303711,0.620450496673584
1707603229918367500,9.599367431640625,-5.128260135650635,-5.9162139892578125,1.0847558975219727
1707603229937261000,9.618260986328124,-9.641820907592773,2.2545113563537598,1.024604320526123
1707603229956154600,9.637154541015626,-14.510348320007324,10.64767837524414,-1.1944913864135742
1707603229975048200,9.656048095703126,-17.894378662109375,17.06148910522461,-6.137539863586426
1707603229993941800,9.674941650390625,-16.808128356933594,18.50095558166504,-8.59564208984375
1707603230012835300,9.69383544921875,-13.922454833984375,16.18496322631836,-5.818904876708984
1707603230031729000,9.71272900390625,-10.046895027160645,12.267735481262207,-2.2665600776672363
1707603230050622500,9.73162255859375,-8.149460792541504,6.931178569793701,1.0812406539916992
1707603230069516000,9.75051611328125,-5.589832305908203,2.0480709075927734,2.7740225791931152
1707603230088409600,9.76940966796875,-3.3291165828704834,-2.8801140785217285,3.7638816833496094
1707603230107303200,9.78830322265625,-1.7678744792938232,-7.618101596832275,2.8854193687438965
1707603230126196700,9.80719677734375,0.41349148750305176,-11.712167739868164,0.9544949531555176
1707603230145090300,9.82609033203125,3.351215362548828,-15.495407104492188,0.2541351318359375
1707603230163984000,9.84498388671875,7.2149810791015625,-17.882883071899414,0.10773658752441406
1707603230182877400,9.86387744140625,10.90032958984375,-17.75913429260254,-1.0686864852905273
1707603230201771000,9.88277099609375,7.8358001708984375,-17.407072067260742,0.1519756317138672
1707603230220664600,9.90166455078125,3.0820651054382324,-15.312919616699219,0.29230403900146484
1707603230239558100,9.92055810546875,-0.12396931648254395,-10.677160263061523,0.769411563873291
1707603230258451500,9.939451416015626,-3.647507667541504,-4.647848129272461,0.9819126129150391
1707603230277345000,9.958344970703125,-6.940558433532715,3.3898420333862305,0.6555747985839844
1707603230296238600,9.977238525390625,-8.969493865966797,10.407445907592773,-0.2177886962890625
1707603230315132200,9.996132080078125,-10.092305183410645,15.201810836791992,-1.950632095336914
1707603230334025700,10.015025634765625,-9.713289260864258,17.40962028503418,-1.9872426986694336
1707603230352919300,10.033919189453124,-8.908458709716797,17.37356185913086,-1.9590544700622559
1707603230371812900,10.052812744140626,-8.028164863586426,14.055532455444336,-1.4406976699829102
1707603230390706400,10.07170654296875,-6.845168113708496,8.829530715942383,-0.4852595329284668
1707603230409600000,10.09060009765625,-5.471085548400879,3.5698585510253906,0.9378328323364258
1707603230428493600,10.10949365234375,-3.535208225250244,-0.7784848213195801,1.794212818145752
1707603230447387100,10.12838720703125,-2.0060606002807617,-4.817143440246582,0.9760951995849609
1707603230466280700,10.14728076171875,-0.4479842185974121,-9.106632232666016,-0.7297306060791016
1707603230485174300,10.16617431640625,2.3887767791748047,-13.209773063659668,-1.0649051666259766
1707603230504067800,10.18506787109375,5.046746730804443,-15.056060791015625,-2.236772060394287
1707603230522961400,10.20396142578125,5.958665370941162,-15.63348388671875,-3.0483336448669434
1707603230541855000,10.22285498046875,4.852413654327393,-13.519450187683105,-1.5033116340637207
1707603230560748500,10.24174853515625,1.6537996530532837,-10.310295104980469,-2.328190803527832
1707603230579641900,10.260641845703125,-1.4931833744049072,-5.209569931030273,-3.093568801879883
1707603230598535400,10.279535400390625,-0.5679786205291748,-0.521298885345459,-4.0472092628479
1707603230617429200,10.29842919921875,-0.9885302782058716,3.1342544555664062,-1.0928776264190674
1707603230636322800,10.31732275390625,-1.9288158416748047,5.193465232849121,3.751614809036255
1707603230655216000,10.336216064453126,-3.3721213340759277,7.5537872314453125,6.11107063293457
1707603230674109700,10.355109619140626,-4.750374794006348,8.43667221069336,5.948709011077881
1707603230693003300,10.374003173828125,-5.602367401123047,6.258854866027832,2.498608112335205
1707603230711896800,10.392896728515625,-5.728176116943359,4.325124740600586,0.804311215877533
1707603230730790400,10.411790283203125,-5.360700607299805,1.8370180130004883,-0.1276455521583557
1707603230749684000,10.43068408203125,-4.372662544250488,-0.2686128616333008,-0.3831658363342285
1707603230768577500,10.44957763671875,-3.6923787593841553,-3.257875442504883,-0.8003039360046387
1707603230787471000,10.46847119140625,-0.9237563610076904,-5.048443794250488,-3.5682668685913086
1707603230806364700,10.48736474609375,0.4185512661933899,-6.89798641204834,-7.601462364196777
1707603230825258200,10.50625830078125,1.9245221614837646,-7.868281364440918,-9.765862464904785
1707603230844151800,10.52515185546875,3.811012029647827,-8.324909210205078,-9.009400367736816
1707603230863045400,10.54404541015625,7.114233493804932,-5.88655948638916,-2.352888345718384
1707603230881939000,10.56293896484375,6.9198784828186035,-3.9923386573791504,2.024634599685669
1707603230900832500,10.58183251953125,2.8000056743621826,-2.09309720993042,3.061871290206909
1707603230919726000,10.60072607421875,0.6011670231819153,1.6675710678100586,3.0750458240509033
1707603230938619600,10.61961962890625,-1.4511429071426392,6.965195655822754,4.456523895263672
1707603230957513200,10.63851318359375,-3.916642665863037,11.831172943115234,5.704456329345703
1707603230976406800,10.65740673828125,-7.21860408782959,13.456871032714844,5.363343238830566
1707603230995300000,10.676300048828125,-10.288742065429688,10.416330337524414,4.218338966369629
1707603231014194000,10.69519384765625,-10.473005294799805,6.0838823318481445,3.973555088043213
1707603231033087500,10.71408740234375,-7.463554382324219,0.28635597229003906,1.7903072834014893
1707603231051981000,10.73298095703125,-2.21081280708313,-3.438934326171875,-2.0842552185058594
1707603231070874400,10.751874267578126,2.3107223510742188,-8.072673797607422,-3.738184690475464
1707603231089768000,10.770767822265626,7.34828519821167,-11.73819637298584,-3.8437435626983643
1707603231108661500,10.78966162109375,10.318853378295898,-12.172933578491211,-4.523972511291504
1707603231127555300,10.808555419921875,8.074214935302734,-10.454322814941406,-5.970485687255859
1707603231146448600,10.82744873046875,3.462587356567383,-8.045232772827148,-7.674640655517578
1707603231165342200,10.84634228515625,0.4783084988594055,-6.796630859375,-7.347690582275391
1707603231184235800,10.86523583984375,1.1419944763183594,-5.483391284942627,-4.54903507232666
1707603231203129300,10.88412939453125,3.3872110843658447,-1.5112614631652832,2.5818376541137695
1707603231222023000,10.90302294921875,1.9308404922485352,1.7392315864562988,6.608553409576416
1707603231240916500,10.92191650390625,-2.0856709480285645,5.223453044891357,6.883255481719971
1707603231259810000,10.94081005859375,-5.160257339477539,8.01217269897461,6.534704208374023
1707603231278703600,10.95970361328125,-7.737370014190674,10.081640243530273,6.49878454208374
1707603231297597200,10.97859716796875,-9.158061981201172,8.896856307983398,5.614943504333496
1707603231316490800,10.99749072265625,-8.855329513549805,5.20054292678833,5.169858932495117
1707603231335384300,11.01638427734375,-7.153487205505371,1.6006464958190918,5.649691104888916
1707603231354278000,11.03527783203125,-4.137670516967773,-2.138880729675293,4.321844577789307
1707603231373171500,11.05417138671875,-2.0395100116729736,-4.061974048614502,-0.6649532318115234
1707603231392065000,11.07306494140625,-0.3966054320335388,-4.933930397033691,-6.736414909362793
1707603231410958600,11.09195849609375,1.371422529220581,-6.655707359313965,-10.76283073425293
1707603231429852200,11.11085205078125,4.932575225830078,-8.581426620483398,-11.104315757751465
1707603231448745700,11.129745849609375,7.127452373504639,-8.54534912109375,-8.691972732543945
1707603231467639300,11.148639404296874,6.062270164489746,-7.926366806030273,-5.6193132400512695
1707603231486532900,11.167532958984374,3.7585151195526123,-6.620885372161865,-4.180800437927246
1707603231505426400,11.186426513671876,1.9459164142608643,-3.669543743133545,-2.08675479888916
1707603231524320000,11.205320068359375,0.7951273918151855,0.11816787719726562,1.0630817413330078
1707603231543213300,11.22421337890625,-0.06238478422164917,3.8940377235412598,5.90501594543457
1707603231562107000,11.24310693359375,-1.7030706405639648,5.914693832397461,10.61180305480957
1707603231581000400,11.26200048828125,-2.9626104831695557,5.704446315765381,12.448973655700684
1707603231599894300,11.280894287109374,-2.9705920219421387,3.7942962646484375,12.19494915008545
1707603231618787600,11.29978759765625,-1.0913251638412476,1.3782410621643066,9.306429862976074
1707603231637681200,11.31868115234375,1.5139920711517334,-0.5488269329071045,4.738705635070801
1707603231656574700,11.33757470703125,1.5319914817810059,-2.0453524589538574,1.0604228973388672
1707603231675468300,11.35646826171875,-0.2502419948577881,-3.6199023723602295,-0.8863186836242676
1707603231694361900,11.37536181640625,-1.1681392192840576,-3.713285446166992,-2.2368879318237305
1707603231713255400,11.39425537109375,-1.0035879611968994,-4.018714427947998,-3.621652603149414
1707603231732149000,11.41314892578125,-1.0992484092712402,-4.336620330810547,-4.866148948669434
1707603231751042600,11.43204248046875,-1.4623829126358032,-4.385868549346924,-6.287951946258545
1707603231769936100,11.45093603515625,-1.9738566875457764,-3.6644842624664307,-6.232149124145508
1707603231788829700,11.46982958984375,-2.2953171730041504,-2.246248483657837,-5.422303676605225
1707603231807723300,11.48872314453125,-1.5133652687072754,-1.175130844116211,-4.645240783691406
1707603231826616800,11.507616943359375,0.7994961738586426,0.9460117816925049,-2.1797876358032227
1707603231845510400,11.526510498046875,1.641456961631775,3.6757335662841797,1.3184690475463867
1707603231864404000,11.545404052734375,-0.06446516513824463,6.75041389465332,4.2235307693481445
1707603231883297500,11.564297607421874,-2.716766119003296,8.749865531921387,5.746501922607422
1707603231902191000,11.583191162109374,-4.0563459396362305,8.95223617553711,6.762758255004883
1707603231921084700,11.602084716796876,-3.2780985832214355,6.565444469451904,7.39900016784668
1707603231939978200,11.620978271484375,-1.230035662651062,2.8936867713928223,7.696439743041992
1707603231958871800,11.639871826171875,0.8619521856307983,-0.6851329803466797,8.622732162475586
1707603231977765400,11.658765380859375,3.101992130279541,-3.7671756744384766,7.777289390563965
1707603231996659000,11.677658935546875,4.973199367523193,-6.218689441680908,5.549861431121826
1707603232015552500,11.696552490234374,4.190334796905518,-8.685201644897461,3.973461151123047
1707603232034446000,11.715446044921874,2.327744722366333,-10.528573989868164,2.8459033966064453
1707603232053339600,11.734339599609376,2.416808605194092,-10.479954719543457,0.4232645034790039
1707603232072233200,11.753233154296876,2.0327816009521484,-9.678179740905762,-2.2121541500091553
1707603232091126800,11.772126708984375,1.0415273904800415,-8.202199935913086,-2.857311725616455
1707603232110020400,11.791020263671875,0.11983168125152588,-6.168912887573242,-1.8396189212799072
1707603232128914000,11.809913818359375,-0.6647337675094604,-3.581998825073242,-0.6904299259185791
1707603232147807500,11.828807373046875,-1.5882508754730225,-1.0306577682495117,-0.4363170862197876
1707603232166701000,11.847701171875,-2.2727885246276855,2.4082441329956055,-1.635901689529419
1707603232185594400,11.866594482421876,-3.1405997276306152,6.511987686157227,-2.5261728763580322
1707603232204488200,11.88548828125,-2.2922322750091553,8.315204620361328,-4.1531219482421875
1707603232223381800,11.9043818359375,-1.8393418788909912,9.156713485717773,-3.3552498817443848
1707603232242275300,11.923275390625,-1.4942684173583984,7.288580894470215,-2.2604825496673584
1707603232261168600,11.942168701171875,-2.141416549682617,4.969712257385254,-1.0644752979278564
1707603232280062200,11.961062255859375,-1.996903419494629,2.556281089782715,0.6083649396896362
1707603232298955800,11.979955810546874,-1.88312828540802,-0.2016773223876953,1.9203150272369385
1707603232317849600,11.998849609375,-1.5174089670181274,-2.8764071464538574,1.9044733047485352
1707603232336743000,12.017742919921876,-0.9677491188049316,-5.438459396362305,1.197035789489746
1707603232355636500,12.036636474609375,0.4192633032798767,-6.940183639526367,0.4954933226108551
1707603232374530000,12.055530029296875,1.6025283336639404,-8.239785194396973,-0.11390593647956848
1707603232393423600,12.074423583984375,2.1211020946502686,-9.223390579223633,-0.2182578444480896
1707603232412317200,12.093317138671875,2.584929943084717,-8.321697235107422,-0.3084520697593689
1707603232450104300,12.131104248046874,1.1584678888320923,-3.7861270904541016,-0.2543107867240906
1707603232468998000,12.149997802734376,-1.4233887195587158,-0.5080385208129883,-0.9682685732841492
1707603232487891500,12.168891357421876,-2.6451175212860107,3.200746536254883,-2.2100422382354736
1707603232506785000,12.187784912109375,-2.9617562294006348,7.3339738845825195,-2.1265225410461426
1707603232525678600,12.2066787109375,-2.3047797679901123,11.110153198242188,-0.652290940284729
1707603232544572200,12.225572265625,-2.2345829010009766,11.928506851196289,1.1108651161193848
1707603232563465700,12.2444658203125,-3.843964099884033,9.417916297912598,4.127114772796631
1707603232582359300,12.263359375,-3.773409605026245,5.927908897399902,5.357596397399902
1707603232601252900,12.2822529296875,-3.309000015258789,2.442119598388672,4.192941665649414
1707603232620146400,12.301146484375,-2.9394078254699707,-0.35834693908691406,2.4180617332458496
1707603232639040000,12.3200400390625,-2.897212028503418,-3.3419275283813477,0.887946367263794
1707603232657933600,12.33893359375,-2.1049015522003174,-6.180356979370117,0.4705166816711426
1707603232676827100,12.3578271484375,-0.8579704761505127,-8.925857543945312,1.9130656719207764
1707603232695720700,12.376720703125,0.6566951274871826,-10.605012893676758,3.357865810394287
1707603232714661400,12.395661376953125,2.6479735374450684,-10.336100578308105,2.91658616065979
1707603232733507800,12.4145078125,2.9093399047851562,-9.293429374694824,0.8820743560791016
1707603232752401400,12.4334013671875,2.7037193775177,-6.4867095947265625,-0.6455574035644531
1707603232771295000,12.452294921875,2.8813719749450684,-3.1807799339294434,-1.7962193489074707
1707603232790188500,12.4711884765625,3.730254888534546,0.5118169784545898,-1.7301044464111328
1707603232809082000,12.49008203125,2.442270278930664,4.572518348693848,-3.9372568130493164
1707603232827975700,12.5089755859375,0.8952243328094482,6.594361305236816,-3.639955520629883
1707603232846869000,12.527868896484375,-2.5837128162384033,7.237374305725098,-2.835331916809082
1707603232865762800,12.5467626953125,-3.9432718753814697,6.757604598999023,-1.6308908462524414
1707603232884656400,12.565656494140624,-2.1950886249542236,5.780393123626709,-1.6936349868774414
1707603232903550000,12.584550048828126,-0.5328048467636108,4.751499176025391,-1.6512031555175781
1707603232922443300,12.603443359375,-1.1009857654571533,4.125147819519043,-0.09999513626098633
1707603232941336800,12.6223369140625,-2.511526107788086,3.1422319412231445,1.1467456817626953
1707603232960230400,12.64123046875,-4.042886734008789,0.4313225746154785,1.7468652725219727
1707603232979124200,12.660124267578125,-2.2341718673706055,-3.3120460510253906,2.711071014404297
1707603232998017500,12.679017578125,0.6989330649375916,-6.642228126525879,4.0910797119140625
1707603233016911000,12.6979111328125,3.118366003036499,-9.16524887084961,4.502905368804932
1707603233035804700,12.7168046875,5.029798984527588,-9.440535545349121,3.002483367919922
1707603233054698200,12.7356982421875,5.3114848136901855,-7.592958927154541,1.049391269683838
1707603233073591800,12.754591796875,4.852169036865234,-4.3831658363342285,1.4339728355407715
1707603233092485400,12.7734853515625,1.4806342124938965,0.0019745826721191406,1.5808701515197754
1707603233111379000,12.79237890625,-1.9710921049118042,4.014516353607178,-0.23229646682739258
1707603233130272500,12.8112724609375,-5.071526527404785,9.174546241760254,-3.1958818435668945
1707603233149166000,12.830166015625,-7.276891231536865,13.04897689819336,-7.05472993850708
1707603233168059600,12.8490595703125,-8.565482139587402,12.814447402954102,-7.102582931518555
1707603233186953200,12.867953125,-8.581657409667969,8.735555648803711,-4.179373264312744
1707603233205846800,12.8868466796875,-5.349753379821777,3.042374610900879,-1.2116870880126953
1707603233224740400,12.905740234375,-1.6568567752838135,-1.816065788269043,1.1820921897888184
1707603233243634000,12.924634033203125,1.4703549146652222,-5.548297882080078,3.5941712856292725
1707603233262527500,12.943527587890625,3.288288116455078,-9.04926872253418,5.423827171325684
1707603233281421000,12.962421142578124,4.83519983291626,-12.008493423461914,5.532652854919434
1707603233300314600,12.981314697265624,6.651829719543457,-13.544940948486328,4.511510372161865
1707603233319208200,13.000208251953126,6.807114601135254,-12.252927780151367,2.889594078063965
1707603233338101800,13.019101806640625,5.297122001647949,-8.263320922851562,1.5824518203735352
1707603233356995300,13.037995361328125,2.276214599609375,-2.8740954399108887,0.7270512580871582
1707603233375889000,13.056888916015625,-4.204901218414307,2.713183879852295,0.03581857681274414
1707603233394782500,13.075782470703125,-10.463706970214844,7.061997413635254,-0.6444358825683594
1707603233413676000,13.094676025390624,-10.277229309082031,10.889570236206055,-4.4064435958862305
1707603233432569600,13.113569580078124,-7.089682579040527,11.848514556884766,-6.528280735015869
1707603233451463200,13.132463134765626,-5.121652603149414,9.663333892822266,-4.862691402435303
1707603233470356700,13.151356689453126,-3.2262346744537354,5.988082408905029,-1.2979612350463867
1707603233489250300,13.170250244140625,-0.9958114624023438,2.064627170562744,2.1185832023620605
1707603233508143900,13.189143798828125,0.9018075466156006,-1.9076757431030273,4.243618011474609
1707603233527037400,13.208037353515625,2.546391248703003,-5.660085201263428,4.548462867736816
1707603233545931000,13.226930908203125,3.9045636653900146,-8.322935104370117,3.9249789714813232
1707603233564824600,13.245824462890624,4.319328784942627,-10.908496856689453,1.6727347373962402
1707603233583718100,13.26471826171875,3.9122767448425293,-11.648791313171387,-1.753312587738037
1707603233602611700,13.28361181640625,4.21681547164917,-11.420761108398438,-3.233915328979492
1707603233621505300,13.30250537109375,2.64321231842041,-9.80730152130127,-2.5035338401794434
1707603233640398800,13.32139892578125,1.1557669639587402,-5.838907241821289,-1.0471701622009277
1707603233659292400,13.34029248046875,-0.7344034910202026,0.32175731658935547,0.006314754486083984
1707603233678186000,13.35918603515625,-3.0688135623931885,5.066189765930176,0.02440929412841797
1707603233697079600,13.37807958984375,-4.523832321166992,8.507503509521484,-1.2060174942016602
1707603233715973000,13.39697314453125,-5.870061874389648,10.373305320739746,-1.9839401245117188
1707603233734866700,13.41586669921875,-7.469363212585449,10.525949478149414,-1.3764252662658691
1707603233753760300,13.43476025390625,-8.33903694152832,8.890748977661133,0.18149852752685547
1707603233772653800,13.45365380859375,-8.777355194091797,5.4173455238342285,2.721992015838623
1707603233791547400,13.47254736328125,-8.187296867370605,0.889369010925293,3.1361074447631836
1707603233810441000,13.49144091796875,-5.582437038421631,-3.2932310104370117,1.1488819122314453
1707603233829334500,13.51033447265625,-2.7250356674194336,-7.0571136474609375,-0.9612550735473633
1707603233848228000,13.52922802734375,-0.23219625651836395,-9.799508094787598,-3.306448459625244
1707603233867121400,13.548121337890626,1.804868221282959,-10.286102294921875,-6.919317245483398
1707603233886015200,13.56701513671875,3.400146961212158,-9.767176628112793,-10.951070785522461
1707603233904908800,13.58590869140625,5.394954681396484,-8.094210624694824,-9.396084785461426
1707603233923802400,13.60480224609375,5.2761735916137695,-6.300394058227539,-3.1568286418914795
1707603233942695700,13.62369580078125,2.8670825958251953,-5.266491413116455,0.5439512729644775
1707603233961589500,13.642589599609375,1.7027194499969482,-3.498081684112549,3.046574115753174
1707603233980483000,13.661483154296874,1.1116095781326294,-0.22938060760498047,4.729791641235352
1707603233999376400,13.68037646484375,0.15995416045188904,4.0744428634643555,5.974812030792236
1707603234018270000,13.69927001953125,-0.9153915047645569,7.735304832458496,6.348605632781982
1707603234037163500,13.71816357421875,-2.5724358558654785,8.538199424743652,5.840847015380859
1707603234056057300,13.737057373046875,-3.9973180294036865,7.111624717712402,5.030857086181641
1707603234074950700,13.75595068359375,-4.950166702270508,4.542181015014648,3.642188310623169
1707603234093844200,13.77484423828125,-4.343463897705078,1.6031246185302734,1.764488697052002
1707603234112737800,13.79373779296875,-2.557361364364624,-1.4928703308105469,-0.703171968460083
1707603234131631600,13.812631591796874,0.9407530426979065,-4.108945846557617,-2.7086539268493652
1707603234150525000,13.83152490234375,4.114449977874756,-6.432783603668213,-3.5955190658569336
1707603234169418500,13.85041845703125,6.202486991882324,-8.553654670715332,-3.2941267490386963
1707603234188312000,13.86931201171875,6.677276611328125,-9.232783317565918,-4.476752281188965
1707603234207205600,13.88820556640625,5.822948455810547,-9.141926765441895,-5.543159484863281
1707603234226099200,13.90709912109375,4.15114164352417,-7.725480079650879,-4.339351654052734
1707603234244992800,13.92599267578125,1.5959737300872803,-5.117694854736328,-0.14251065254211426
1707603234263886300,13.94488623046875,-0.12333595752716064,-1.8718008995056152,3.663200616836548
1707603234282780000,13.96377978515625,-2.3421504497528076,2.8523292541503906,5.327876091003418
1707603234301673500,13.982673583984376,-5.504428863525391,8.043540000915527,3.479832649230957
1707603234320567000,14.001567138671875,-8.58496379852295,11.669466018676758,0.07798647880554199
1707603234339460600,14.020460693359375,-10.666500091552734,11.787986755371094,-1.522801399230957
1707603234358354200,14.039354248046875,-12.568294525146484,7.582914352416992,-0.5695338249206543
1707603234377247700,14.058247802734375,-11.780046463012695,2.7115001678466797,0.7791244983673096
1707603234396141300,14.077141357421874,-7.855270862579346,-1.882533073425293,1.2574748992919922
1707603234415035000,14.096034912109374,-1.078016757965088,-5.836022853851318,-2.4374802112579346
1707603234433928400,14.114928466796876,4.422667503356934,-9.219034194946289,-5.552204132080078
1707603234452822000,14.133822021484375,9.614171981811523,-11.952669143676758,-5.948009490966797
1707603234471715600,14.152715576171875,12.47183609008789,-12.201337814331055,-4.462747573852539
1707603234490609200,14.171609130859375,11.045967102050781,-10.762483596801758,-0.6563597917556763
1707603234509502700,14.190502685546875,6.824218273162842,-9.4197416305542,0.8588456511497498
1707603234528396300,14.209396240234375,3.6961584091186523,-5.1755876541137695,2.8662877082824707
1707603234547289900,14.228289794921874,-0.4509618282318115,-0.920872688293457,3.1699917316436768
1707603234566183400,14.247183349609376,-3.803901195526123,3.476201057434082,2.9898855686187744
1707603234585077000,14.266076904296876,-6.1543073654174805,9.156022071838379,2.104548931121826
1707603234603970600,14.284970458984375,-8.841438293457031,13.918049812316895,0.952893078327179
1707603234622864100,14.303864013671875,-12.35886001586914,13.857477188110352,1.4572017192840576
1707603234641757700,14.3227578125,-13.51689338684082,9.141794204711914,3.266864538192749
1707603234660651300,14.3416513671875,-11.169393539428711,3.841144561767578,5.28460693359375
1707603234679544800,14.360544921875,-7.7991790771484375,-1.625770092010498,4.2884602546691895
1707603234698438400,14.3794384765625,-4.648358345031738,-6.920200347900391,0.4916345179080963
1707603234717332000,14.39833203125,0.1232140064239502,-11.976499557495117,-5.8166327476501465
1707603234736225500,14.4172255859375,9.010212898254395,-12.355070114135742,-10.215628623962402
1707603234755119000,14.436119140625,13.880748748779297,-10.761697769165039,-8.248472213745117
1707603234774012700,14.4550126953125,11.998085021972656,-9.740425109863281,-4.81512975692749
1707603234792906200,14.47390625,6.976536750793457,-8.106922149658203,-1.7441943883895874
1707603234811799800,14.4927998046875,3.1115005016326904,-4.807973384857178,0.19233155250549316
1707603234830693400,14.511693359375,1.181124210357666,-2.652838706970215,-0.9071123600006104
1707603234849587000,14.5305869140625,0.8161110877990723,0.06084918975830078,-1.0185763835906982
1707603234868480500,14.54948046875,0.0868176817893982,0.08989334106445312,-0.3073716163635254
1707603234887374000,14.5683740234375,-0.4931143522262573,2.5898895263671875,5.399425983428955
1707603234906267600,14.587267578125,-1.73019540309906,4.8459930419921875,5.113575458526611
1707603234925161200,14.6061611328125,-2.770076274871826,6.702276229858398,4.566798210144043
1707603234944054800,14.6250546875,-4.639545917510986,7.469334602355957,5.26192569732666
1707603234962948400,14.6439482421875,-6.429108619689941,7.958817481994629,5.5994462966918945
1707603234981842000,14.662842041015624,-7.281825065612793,6.851825714111328,4.709001541137695
1707603235000735500,14.681735595703126,-7.181666851043701,4.198483467102051,2.9793763160705566
1707603235019629000,14.700629150390625,-7.101404190063477,1.074812889099121,-0.2266697883605957
1707603235038522600,14.719522705078125,-7.484667778015137,-3.796067714691162,0.538792610168457
1707603235057416200,14.738416259765625,-3.336181163787842,-7.174078941345215,-0.5257081985473633
1707603235076309800,14.757309814453125,3.6003825664520264,-8.093582153320312,-4.321645736694336
1707603235095203300,14.776203369140624,9.69274616241455,-7.284361839294434,-8.151037216186523
1707603235114097000,14.795096923828124,8.998967170715332,-5.487179756164551,-10.871394157409668
1707603235132990500,14.813990478515626,3.4313788414001465,-4.728593826293945,-10.885988235473633
1707603235151884000,14.832884033203126,0.5977554321289062,-3.198399543762207,-9.3333158493042
1707603235170777600,14.851777587890625,0.9171321392059326,-2.652977705001831,-6.904205322265625
1707603235189671200,14.870671142578125,3.026968479156494,-1.7098808288574219,-1.3652405738830566
1707603235208564700,14.889564697265625,4.383408546447754,1.0566487312316895,7.114552974700928
1707603235227458300,14.908458251953125,2.7002508640289307,4.570715427398682,13.163337707519531
1707603235246352000,14.927351806640624,-0.6890519857406616,6.010192394256592,14.996664047241211
1707603235265245400,14.946245361328126,-2.6196045875549316,5.11763858795166,15.116033554077148
1707603235284139000,14.965138916015626,-2.1201329231262207,2.7478437423706055,13.380193710327148
1707603235303032600,14.984032470703125,-1.668287992477417,0.9535465240478516,10.764181137084961
1707603235321926100,15.002926025390625,-1.548829436302185,-1.6389832496643066,7.531655311584473
1707603235340820000,15.021820068359375,0.3265087604522705,-4.68759822845459,3.010042190551758
1707603235359713300,15.04071337890625,1.5311200618743896,-6.645052433013916,0.023799896240234375
1707603235378606800,15.05960693359375,0.8758833408355713,-8.264694213867188,-1.564030408859253
1707603235397500400,15.07850048828125,0.3817627429962158,-9.489752769470215,-3.5752782821655273
1707603235416394200,15.097394287109376,1.1979916095733643,-10.360528945922852,-6.112005233764648
1707603235435287600,15.11628759765625,2.4045398235321045,-9.629317283630371,-7.244304656982422
1707603235454181000,15.13518115234375,2.1631526947021484,-7.643564224243164,-5.375091075897217
1707603235473075000,15.154074951171875,0.9310404062271118,-6.278252601623535,-3.450930595397949
1707603235491968500,15.172968505859375,-0.2372857928276062,-4.270251274108887,-2.462615489959717
1707603235510861800,15.19186181640625,-0.6874178051948547,-0.12728309631347656,-1.0011060237884521
1707603235529755400,15.21075537109375,-1.0527503490447998,3.6819772720336914,-0.2803992033004761
1707603235548649200,15.229649169921874,-1.4476945400238037,6.748439788818359,-0.3709336519241333
1707603235567542800,15.248542724609376,-0.5635942816734314,8.912675857543945,0.043310582637786865
1707603235586436000,15.26743603515625,-0.14646440744400024,9.803603172302246,1.8022520542144775
1707603235605330000,15.286329833984375,-1.256257176399231,9.1614990234375,3.9419374465942383
1707603235624223500,15.305223388671875,-3.5902838706970215,7.0012311935424805,4.881779193878174
1707603235643117000,15.324116943359375,-3.8145010471343994,5.145185470581055,4.558382511138916
1707603235662010400,15.34301025390625,-3.959547519683838,2.3051767349243164,2.529094934463501
1707603235680904200,15.361904296875,-3.5808169841766357,-0.3199491500854492,1.3154230117797852
1707603235699797800,15.3807978515625,-2.8425168991088867,-2.8799986839294434,0.16825830936431885
1707603235718691000,15.399691162109375,-2.000478744506836,-5.115537643432617,-0.7362287044525146
1707603235737584600,15.418584716796875,-1.317152976989746,-7.42519998550415,-1.194197177886963
1707603235756478500,15.437478515625,-0.7494432926177979,-9.26018238067627,-1.2663099765777588
1707603235775372000,15.4563720703125,0.5352524518966675,-9.280990600585938,-1.0521931648254395
1707603235794265300,15.475265380859375,1.7164956331253052,-7.737762451171875,-1.2394182682037354
1707603235813159200,15.4941591796875,2.4071950912475586,-5.581646919250488,-0.6047549247741699
1707603235832052700,15.513052734375,2.6691460609436035,-2.8629255294799805,1.551107406616211
1707603235850946300,15.5319462890625,2.4455761909484863,2.287281036376953,4.087757587432861
1707603235869839600,15.550839599609375,1.2824867963790894,8.116134643554688,5.8655266761779785
1707603235888733400,15.5697333984375,-1.0618079900741577,11.275529861450195,5.094418525695801
1707603235907627000,15.588626953125,-3.5841259956359863,11.425108909606934,2.589675188064575
1707603235926520600,15.6075205078125,-5.212167739868164,8.9148588180542,0.6058828830718994
1707603235945414000,15.626413818359374,-5.02131986618042,5.286431312561035,0.2775881290435791
1707603235964307700,15.6453076171875,-2.8309860229492188,1.0710935592651367,0.6623857021331787
1707603235983201300,15.664201171875,-0.1909170150756836,-3.429655075073242,1.472041130065918
1707603236002094800,15.6830947265625,1.84029221534729,-7.8675994873046875,2.6545634269714355
1707603236020988400,15.701988525390625,3.079235076904297,-11.235389709472656,2.8315505981445312
1707603236039882000,15.720882080078125,4.267226696014404,-12.773180961608887,2.2099156379699707
1707603236058775600,15.739775634765625,5.895437240600586,-12.134490966796875,0.5755071640014648
1707603236077669000,15.758669189453125,6.200150012969971,-9.313682556152344,-1.1646227836608887
1707603236096562700,15.777562744140624,5.4145188331604,-6.809730529785156,-3.085329532623291
1707603236115456300,15.796456298828126,3.557724952697754,-4.39307975769043,-3.2944507598876953
1707603236134349800,15.815349853515626,-0.47324925661087036,-0.1720423698425293,-1.9529986381530762
1707603236153243400,15.834243408203125,-4.775596618652344,4.373990058898926,-0.3864297866821289
1707603236172137000,15.853136962890625,-7.9364471435546875,8.486042976379395,-0.4892263412475586
1707603236191030500,15.872030517578125,-9.321532249450684,11.392252922058105,-1.4554457664489746
1707603236209924000,15.890924072265625,-9.919342041015625,12.001712799072266,-2.6232237815856934
1707603236228817700,15.909817626953124,-9.736856460571289,10.102021217346191,-3.0241527557373047
1707603236247711200,15.928711181640624,-8.294303894042969,6.469684600830078,-2.3666458129882812
1707603236266604800,15.947604736328126,-5.718531131744385,2.1469240188598633,-1.27677583694458
1707603236285498400,15.966498291015625,-2.8640193939208984,-2.0611729621887207,0.22243309020996094
1707603236304392000,15.985391845703125,-0.7924895286560059,-6.09429407119751,2.200568914413452
1707603236323285500,16.004285400390625,3.446284532546997,-9.223563194274902,3.0881824493408203
1707603236342179000,16.023178955078127,5.116314888000488,-11.21561336517334,2.281728744506836
1707603236361072600,16.04207275390625,7.489858150482178,-12.332395553588867,1.7959961891174316
1707603236379966200,16.06096630859375,8.57457447052002,-13.322192192077637,1.34328031539917
1707603236398859800,16.07985986328125,8.466957092285156,-13.426065444946289,0.4448084831237793
1707603236417753300,16.09875341796875,5.013875484466553,-11.72406005859375,0.16576910018920898
1707603236436647000,16.11764697265625,1.4338165521621704,-7.849097728729248,0.2516036033630371
1707603236455540500,16.13654052734375,-1.257856011390686,-0.2897658348083496,-1.9868497848510742
1707603236474434000,16.15543408203125,-4.452986717224121,6.583566665649414,-3.520244598388672
1707603236493327600,16.17432763671875,-9.10647964477539,9.907639503479004,-4.593303680419922
1707603236512221200,16.19322119140625,-13.036508560180664,9.882658958435059,-3.9571261405944824
1707603236531114800,16.21211474609375,-15.08952522277832,8.128841400146484,-2.3082923889160156
1707603236550008300,16.23100830078125,-14.767565727233887,6.315459728240967,-0.32352495193481445
1707603236568902000,16.24990185546875,-12.21966552734375,3.9649405479431152,1.1709651947021484
1707603236587795500,16.26879541015625,-7.711740493774414,1.3535737991333008,1.659111499786377
1707603236606689000,16.28768896484375,-3.234950065612793,-1.2144427299499512,2.265882968902588
1707603236625582600,16.30658251953125,-0.9804277420043945,-4.65456485748291,3.836130380630493
1707603236644476200,16.32547607421875,3.682089328765869,-7.176822662353516,3.8787715435028076
1707603236663369700,16.34436962890625,6.065662384033203,-8.969898223876953,3.0804953575134277
1707603236682263300,16.36326318359375,7.49343204498291,-10.54982852935791,2.166048526763916
1707603236701156900,16.382156982421876,8.771273612976074,-11.697595596313477,0.4930610656738281
1707603236720050400,16.401050537109374,9.833773612976074,-11.723407745361328,-1.2439098358154297
1707603236738944000,16.419944091796875,9.681997299194336,-10.41942024230957,-1.8909173011779785
1707603236757837600,16.438837646484377,8.252181053161621,-8.294076919555664,-0.9269766807556152
1707603236776731100,16.457731201171875,4.883337497711182,-5.080288887023926,-0.060021400451660156
1707603236795624700,16.476624755859376,1.354357361793518,-1.3782315254211426,-0.7982420921325684
1707603236814518300,16.495518310546874,-2.865025043487549,4.445032596588135,-1.356442928314209
1707603236833411800,16.514411865234376,-9.219541549682617,8.146747589111328,-1.1827106475830078
1707603236852305400,16.533305419921874,-14.883407592773438,8.917142868041992,-2.2066006660461426
1707603236871199000,16.552198974609375,-19.327030181884766,7.938633441925049,-2.2062768936157227
1707603236890092500,16.571092529296877,-17.518505096435547,5.855278015136719,-3.171894073486328
1707603236908986000,16.589986083984375,-15.421622276306152,1.553870677947998,-1.2815790176391602
1707603236927879700,16.608879638671876,-10.77353572845459,-2.5713162422180176,0.6206083297729492
1707603236946773500,16.6277734375,-6.128957748413086,-6.710676670074463,1.226597785949707
1707603236965666800,16.646666748046876,-2.8876895904541016,-10.34105110168457,0.8119974136352539
1707603236984560400,16.665560302734374,0.44129008054733276,-13.93988037109375,-1.3742423057556152
1707603237003454200,16.6844541015625,3.0759387016296387,-16.42934226989746,-3.511164665222168
1707603237022347800,16.70334765625,4.81348991394043,-16.80609893798828,-5.5802435874938965
1707603237041241000,16.722240966796875,6.042218208312988,-14.760496139526367,-5.8720479011535645
1707603237060135000,16.741135009765625,7.374397277832031,-10.892208099365234,-5.277874946594238
1707603237079028500,16.760028564453126,10.870304107666016,-6.318519592285156,-1.189009666442871
1707603237097922000,16.778922119140624,8.194759368896484,-2.0196332931518555,-0.1148538589477539
1707603237116815600,16.797815673828126,4.633560657501221,1.5855789184570312,3.5707788467407227
1707603237135709200,16.816709228515624,0.6613702774047852,6.824138641357422,6.9441022872924805
1707603237154602800,16.835602783203125,-3.8089118003845215,10.910666465759277,7.52459716796875
1707603237173496300,16.854496337890627,-6.896664142608643,12.55593490600586,6.146989822387695
1707603237192390000,16.873389892578125,-8.182626724243164,11.95150089263916,4.195920467376709
1707603237211283500,16.892283447265626,-7.618588447570801,9.461952209472656,2.5901002883911133
1707603237230177000,16.911177001953124,-6.659451007843018,4.852001190185547,1.5402100086212158
1707603237249070600,16.930070556640626,-4.067255973815918,0.5860710144042969,0.5213630199432373
1707603237267964200,16.948964111328124,-1.3261160850524902,-2.6446938514709473,-0.8091044425964355
1707603237286857700,16.967857666015625,1.2928466796875,-5.3839826583862305,-1.7071785926818848
1707603237305751300,16.986751220703123,3.105806827545166,-8.298165321350098,-2.511056900024414
1707603237324644900,17.005644775390625,4.836318016052246,-10.879209518432617,-2.498642683029175
1707603237343538400,17.024538330078126,6.269660949707031,-12.785032272338867,-2.571906328201294
1707603237362432000,17.043431884765624,6.496435165405273,-13.80859375,-2.419689893722534
1707603237381325600,17.06232568359375,5.33198881149292,-13.733549118041992,-3.2460503578186035
1707603237400219100,17.08121923828125,3.1048083305358887,-11.998558044433594,-2.877835273742676
1707603237419112700,17.10011279296875,0.7555916905403137,-7.2935638427734375,0.5064458847045898
1707603237438006300,17.11900634765625,-1.9914484024047852,0.18290138244628906,3.22015118598938
1707603237456899800,17.13789990234375,-5.252320766448975,7.036121368408203,3.4626903533935547
1707603237475793400,17.15679345703125,-9.412805557250977,11.506446838378906,2.0243868827819824
1707603237494687000,17.17568701171875,-12.543856620788574,14.240893363952637,-0.04452705383300781
1707603237513580500,17.19458056640625,-14.306459426879883,14.513355255126953,-1.603015422821045
1707603237532474000,17.21347412109375,-14.723827362060547,11.93305778503418,-2.805543899536133
1707603237551367700,17.23236767578125,-12.610812187194824,6.49986457824707,-2.496500015258789
1707603237570261200,17.25126123046875,-7.841005802154541,1.4934234619140625,-0.7770571708679199
1707603237589154800,17.27015478515625,-4.095206260681152,-3.682185173034668,0.4055442810058594
1707603237608048400,17.28904833984375,-0.038249433040618896,-7.982017993927002,-0.47519397735595703
1707603237626942000,17.30794189453125,4.089460849761963,-10.439581871032715,-1.8557310104370117
1707603237645835500,17.32683544921875,6.861207485198975,-11.451732635498047,-3.1744544506073
1707603237664729300,17.345729248046876,8.801175117492676,-12.35214614868164,-5.835474967956543
1707603237683622700,17.36462255859375,6.228745460510254,-13.014719009399414,-5.251267910003662
1707603237702516200,17.38351611328125,3.673879623413086,-11.767122268676758,-3.791154384613037
1707603237721409800,17.402409912109373,2.3546266555786133,-9.609793663024902,-1.660400152206421
1707603237740303600,17.4213037109375,2.6459593772888184,-6.704173564910889,0.6738685369491577
1707603237759197000,17.440197021484376,2.9350452423095703,-3.000868797302246,4.630500793457031
1707603237778090800,17.4590908203125,1.7611876726150513,2.671778678894043,8.507732391357422
1707603237796984300,17.477984375,-1.0343104600906372,8.42232894897461,10.14052963256836
1707603237815878000,17.4968779296875,-5.47646951675415,13.155742645263672,9.690315246582031
1707603237834771500,17.515771484375,-9.493706703186035,14.499261856079102,8.326976776123047
1707603237853665000,17.5346650390625,-11.576850891113281,12.16198444366455,4.892813682556152
1707603237872558600,17.55355859375,-11.214223861694336,7.863378524780273,2.027578115463257
1707603237891452200,17.5724521484375,-8.267227172851562,3.1830358505249023,-0.2536356449127197
1707603237910345700,17.591345703125,-4.762856960296631,-1.409653663635254,-3.3009276390075684
1707603237929239300,17.6102392578125,-1.400665283203125,-5.8332109451293945,-5.18651008605957
1707603237948132900,17.6291328125,1.761214256286621,-9.879608154296875,-4.964752197265625
1707603237967026400,17.6480263671875,5.653377056121826,-12.143073081970215,-4.893187046051025
1707603237985920000,17.666919921875,7.283957481384277,-12.979235649108887,-6.841806411743164
1707603238004813600,17.6858134765625,6.393259525299072,-13.34971809387207,-6.9223432540893555
1707603238023707100,17.70470703125,4.1468729972839355,-11.797913551330566,-6.041484355926514
1707603238042600700,17.7236005859375,2.4944472312927246,-9.384123802185059,-4.074939250946045
1707603238061494300,17.742494384765624,2.6152868270874023,-4.66985559463501,1.040916919708252
1707603238080387800,17.761387939453126,0.4713689684867859,-0.28894519805908203,5.020400047302246
1707603238099281400,17.780281494140624,-1.749558925628662,4.154773712158203,7.406179428100586
1707603238118175000,17.799175048828126,-4.213528633117676,7.3720855712890625,7.776210784912109
1707603238137068500,17.818068603515623,-5.970523834228516,11.558307647705078,8.381723403930664
1707603238155962000,17.836962158203125,-8.12420654296875,13.732784271240234,8.22530460357666
1707603238174855700,17.855855712890627,-9.78046989440918,11.763851165771484,6.119887828826904
1707603238193749200,17.874749267578125,-9.458569526672363,7.6988019943237305,4.414223670959473
1707603238212642800,17.893642822265626,-7.1566643714904785,3.0057106018066406,2.1705503463745117
1707603238231536400,17.912536376953124,-4.702507019042969,-0.9243974685668945,-1.6992719173431396
1707603238250430000,17.931429931640626,-1.7994322776794434,-4.007805347442627,-4.111008644104004
1707603238269323500,17.950323486328124,0.5066771507263184,-6.732866287231445,-3.9505231380462646
1707603238288217300,17.96921728515625,2.7397706508636475,-8.737238883972168,-4.7265777587890625
1707603238307110700,17.988110595703127,4.272960662841797,-9.191658020019531,-6.122095584869385
1707603238326004200,18.007004150390625,4.8992509841918945,-10.889543533325195,-5.6729512214660645
1707603238344898000,18.02589794921875,3.7503817081451416,-9.902717590332031,-6.926993370056152
1707603238363791600,18.04479150390625,3.634625196456909,-7.92409610748291,-5.014755725860596
1707603238382685000,18.063684814453126,3.213735342025757,-3.7140703201293945,-2.3992786407470703
1707603238401578800,18.082578857421876,1.107250690460205,0.18055057525634766,-1.8784308433532715
1707603238420472300,18.101472412109374,-1.1489545106887817,3.1545019149780273,-1.7615325450897217
1707603238439366000,18.120365966796875,-3.200345516204834,5.827934265136719,-0.45719003677368164
1707603238458259500,18.139259521484377,-4.335414409637451,7.7801313400268555,4.903623580932617
1707603238477153000,18.158153076171875,-4.260897159576416,8.407155990600586,11.692048072814941
1707603238496046600,18.177046630859376,-5.366067886352539,6.857433319091797,14.021159172058105
1707603238514940200,18.195940185546874,-5.462038040161133,4.390251159667969,10.940892219543457
1707603238533833700,18.214833740234376,-5.003877639770508,1.4416542053222656,5.459702968597412
1707603238552727300,18.233727294921874,-3.4433882236480713,-0.38199710845947266,0.33168458938598633
1707603238571620900,18.252620849609375,-2.0868067741394043,-3.0934791564941406,-3.8734130859375
1707603238590514400,18.271514404296877,1.4834682941436768,-5.591965675354004,-5.939054012298584
1707603238609408000,18.290407958984375,5.1654558181762695,-7.905786991119385,-7.068271160125732
1707603238628301600,18.309301513671876,6.221909523010254,-8.923789024353027,-6.017434120178223
1707603238647195100,18.328195068359374,3.852461814880371,-7.863316059112549,-6.5244293212890625
1707603238666088700,18.347088623046876,1.504140853881836,-6.759316444396973,-8.740612030029297
1707603238684982300,18.365982177734374,-0.12733912467956543,-5.268752574920654,-9.695198059082031
1707603238703875800,18.384875732421875,-0.2758338451385498,-4.141251564025879,-6.931211948394775
1707603238722769400,18.403769287109377,0.03483843803405762,-0.9212026596069336,-1.5665841102600098
1707603238741663000,18.4226630859375,1.4554870128631592,4.662147521972656,6.935184478759766
1707603238760556500,18.441556640625,1.787806510925293,7.307064056396484,13.023208618164062
1707603238779450400,18.460450439453126,0.12402468919754028,6.559848785400391,14.223901748657227
1707603238798343700,18.47934375,-1.0456146001815796,5.645497798919678,14.581626892089844
1707603238817237500,18.498237548828126,-2.147869110107422,4.175292491912842,13.002752304077148
1707603238836131000,18.517131103515624,-2.759186029434204,2.284862995147705,10.955236434936523
1707603238855024600,18.536024658203125,-2.941448211669922,0.47271156311035156,8.65213394165039
1707603238873918200,18.554918212890627,-4.434474945068359,-1.3672962188720703,5.919444561004639
1707603238892811800,18.573811767578125,-4.800714492797852,-3.473759651184082,2.552459239959717
1707603238911705300,18.592705322265626,-3.658747673034668,-6.328642845153809,-1.059386968612671
1707603238930599000,18.611598876953124,-0.6607229709625244,-8.015276908874512,-4.338807106018066
1707603238949492500,18.630492431640626,1.6320972442626953,-9.365772247314453,-6.2415595054626465
1707603238968386000,18.649385986328124,2.895519733428955,-10.293124198913574,-7.43876838684082
1707603238987279600,18.668279541015625,3.319260597229004,-9.972453117370605,-9.072077751159668
1707603239006173200,18.687173095703123,2.991933584213257,-8.462409019470215,-9.044038772583008
1707603239025066800,18.706066650390625,2.5425753593444824,-5.7248053550720215,-6.931331157684326
1707603239043960300,18.724960205078126,3.1482994556427,-1.3120908737182617,-4.336648941040039
1707603239062854000,18.74385400390625,1.9905271530151367,1.6193408966064453,-2.3378357887268066
1707603239081747500,18.76274755859375,-0.3324105143547058,3.8369789123535156,0.524419903755188
1707603239100641000,18.78164111328125,-2.547211170196533,6.6570281982421875,4.736481189727783
1707603239119534600,18.80053466796875,-4.371773719787598,8.492134094238281,7.7808518409729
1707603239138428200,18.81942822265625,-6.699550628662109,9.765762329101562,7.85954475402832
1707603239157321700,18.83832177734375,-7.367672443389893,9.478343963623047,6.414158821105957
1707603239176215300,18.85721533203125,-8.132035255432129,6.677481651306152,4.388891696929932
1707603239195109000,18.876109130859376,-7.299693584442139,2.8153228759765625,1.550327181816101
1707603239214002400,18.89500244140625,-5.067481994628906,-1.7039422988891602,-0.3931615352630615
1707603239232896000,18.91389599609375,-2.151352643966675,-6.107826232910156,-1.146545648574829
1707603239251789800,18.932789794921874,0.24904394149780273,-9.38833236694336,-0.5792129039764404
1707603239270683400,18.951683349609375,6.235473155975342,-10.789077758789062,0.7521878480911255
1707603239289577000,18.970576904296873,6.850890159606934,-11.49013900756836,0.2668722867965698
1707603239308470500,18.989470458984375,7.3956804275512695,-10.706416130065918,-0.6504895687103271
1707603239327364000,19.008364013671876,7.355203151702881,-8.14467716217041,-1.1024274826049805
1707603239346257700,19.027257568359374,4.9592061042785645,-4.98821496963501,-2.7300333976745605
1707603239365151200,19.046151123046876,2.1391003131866455,0.47425174713134766,-4.800025939941406
1707603239384044800,19.065044921875,-0.7855558395385742,5.870368003845215,-4.499208927154541
1707603239402938400,19.0839384765625,-5.1569671630859375,9.421156883239746,-3.0654401779174805
1707603239421832000,19.10283203125,-10.210258483886719,11.361251831054688,-0.05707120895385742
1707603239440725500,19.1217255859375,-12.13788890838623,10.932035446166992,1.0131192207336426
1707603239459619000,19.140619140625,-9.625548362731934,7.850171089172363,0.21683931350708008
1707603239478512600,19.1595126953125,-5.742730140686035,4.077033042907715,-0.4586653709411621
1707603239497406200,19.17840625,-3.4110312461853027,0.1807870864868164,1.188788890838623
1707603239516299800,19.1972998046875,-1.8512545824050903,-3.611697196960449,2.9362168312072754
1707603239535193300,19.216193359375,-0.5894646644592285,-6.8058180809021,3.689180612564087
1707603239554087000,19.2350869140625,0.3000190258026123,-10.025774002075195,4.357901096343994
1707603239572980500,19.25398046875,0.7873177528381348,-11.810264587402344,4.248100280761719
1707603239591874000,19.2728740234375,4.240514755249023,-11.408413887023926,4.988278865814209
1707603239610768000,19.291767822265626,5.363203048706055,-7.417547702789307,0.35337352752685547
1707603239629661200,19.3106611328125,7.702174186706543,-4.440833568572998,-2.3673362731933594
1707603239648555000,19.329554931640626,3.3353054523468018,-1.6895828247070312,-0.631861686706543
1707603239667448600,19.348448486328124,-0.9525330066680908,1.7004799842834473,-1.1912178993225098
1707603239686342100,19.367342041015625,-3.9729561805725098,5.771527290344238,-2.4551148414611816
1707603239705235700,19.386235595703123,-7.1008405685424805,9.031396865844727,-3.819129467010498
1707603239724129300,19.40512939453125,-8.411601066589355,9.803829193115234,-4.820975303649902
1707603239743022800,19.42402294921875,-7.554103851318359,8.536806106567383,-5.043578624725342
1707603239761916400,19.44291650390625,-5.606324195861816,6.34639310836792,-4.804027557373047
1707603239780810000,19.46181005859375,-4.12306547164917,3.953284740447998,-3.0628557205200195
1707603239799703600,19.48070361328125,-3.6207516193389893,1.1112399101257324,-0.5120491981506348
1707603239818597000,19.49959716796875,-3.356550693511963,-1.939009189605713,2.470184326171875
1707603239837490700,19.51849072265625,-2.617084503173828,-5.290332794189453,4.631411552429199
1707603239856384300,19.53738427734375,-1.9921317100524902,-8.151939392089844,6.924993515014648
1707603239875277800,19.55627783203125,-0.9838552474975586,-9.484603881835938,7.723791599273682
1707603239894171400,19.57517138671875,-0.19945001602172852,-9.36721420288086,6.951687812805176
1707603239913065000,19.59406494140625,0.4934978485107422,-8.034290313720703,4.216557502746582
1707603239931958500,19.61295849609375,2.251380205154419,-5.869149208068848,1.0252890586853027
1707603239950852000,19.63185205078125,4.359622955322266,-2.471128225326538,1.0052967071533203
1707603239969745700,19.65074560546875,6.5688982009887695,0.7520980834960938,-0.9717483520507812
1707603239988639200,19.66963916015625,5.8285112380981445,3.1012725830078125,-1.5713834762573242
1707603240007533000,19.688532958984375,2.985337734222412,3.9713215827941895,-1.7268199920654297
1707603240026426600,19.707426513671876,0.027888774871826172,5.88028621673584,-2.094827651977539
1707603240045320000,19.72631982421875,-2.2442426681518555,7.001287937164307,-4.468655586242676
1707603240064213800,19.7452138671875,-3.1247196197509766,7.356848239898682,-5.552944183349609
1707603240083107300,19.764107421875,-3.277334213256836,6.996953010559082,-5.521235466003418
1707603240102001000,19.7830009765625,-2.593252420425415,5.7042646408081055,-3.824951171875
1707603240120894500,19.80189453125,-2.1916134357452393,3.534172534942627,-1.3158254623413086
1707603240139788000,19.8207880859375,-2.16252064704895,1.006537914276123,0.6421961784362793
1707603240158681600,19.839681640625,-2.199153423309326,-1.7524888515472412,2.0975465774536133
1707603240177575200,19.8585751953125,-1.9721698760986328,-4.599727153778076,3.242434024810791
1707603240196468700,19.87746875,-0.4413766860961914,-7.117600440979004,4.611960411071777
1707603240215362300,19.8963623046875,0.6192169189453125,-8.171980857849121,4.3361077308654785
1707603240234256000,19.915255859375,1.0327486991882324,-8.391457557678223,4.367284297943115
1707603240253149400,19.9341494140625,1.5188169479370117,-7.9582905769348145,3.9940109252929688
1707603240272043000,19.95304296875,1.4572319984436035,-6.667800426483154,2.302997589111328
1707603240290936600,19.9719365234375,0.9631924629211426,-4.212160110473633,0.6124224662780762
1707603240309830100,19.990830078125,0.9475924968719482,-0.5772323608398438,0.47211790084838867
1707603240328723700,20.0097236328125,1.0510165691375732,3.1157913208007812,0.6361427307128906
1707603240347617300,20.0286171875,0.32076406478881836,6.264344692230225,-1.5030455589294434
1707603240366511000,20.047510986328124,-0.5682400465011597,8.250581741333008,-5.793405532836914
1707603240385404400,20.066404296875,-1.8664346933364868,9.022371292114258,-7.378603458404541
1707603240404298200,20.08529833984375,-2.878742218017578,8.752274513244629,-5.956839084625244
1707603240423191800,20.10419189453125,-4.090512275695801,7.163600921630859,-3.773545742034912
1707603240442085400,20.12308544921875,-4.553359031677246,4.786424160003662,-1.9000744819641113
1707603240460979000,20.14197900390625,-4.212096214294434,2.3389010429382324,-1.0052332878112793
1707603240498766000,20.17976611328125,-2.3366761207580566,-2.8229737281799316,-0.2285289764404297
1707603240517659600,20.19865966796875,-0.19355392456054688,-5.838877201080322,0.574864387512207
1707603240536553200,20.21755322265625,1.836073875427246,-8.130546569824219,1.1298294067382812
1707603240555446800,20.23644677734375,3.249011993408203,-9.502945899963379,1.0948920249938965
1707603240574340400,20.25534033203125,4.668971538543701,-10.517311096191406,1.046435832977295
1707603240593234000,20.27423388671875,4.772157669067383,-11.314529418945312,1.4835643768310547
1707603240612127500,20.29312744140625,4.043478012084961,-9.06886100769043,2.57975435256958
1707603240631021000,20.31202099609375,3.187002420425415,-4.1921305656433105,4.128757953643799
1707603240649914600,20.33091455078125,2.2339749336242676,1.2399234771728516,4.040149211883545
1707603240668808200,20.34980810546875,-1.1792216300964355,5.327228546142578,1.0213756561279297
1707603240687702000,20.368701904296874,-4.530323505401611,8.088713645935059,-1.9979205131530762
1707603240706595600,20.387595703125,-5.488158226013184,10.29193115234375,-2.3038511276245117
1707603240725489200,20.4064892578125,-7.132566452026367,9.877920150756836,-1.7340660095214844
1707603240744382700,20.4253828125,-8.119919776916504,7.633607864379883,-0.9998660087585449
1707603240763276300,20.4442763671875,-9.179083824157715,3.849818229675293,-0.6857829093933105
1707603240782169900,20.463169921875,-8.232048034667969,-0.6428127288818359,-0.3170948028564453
1707603240801063400,20.4820634765625,-5.1107282638549805,-5.0011186599731445,-1.6908760070800781
1707603240819957000,20.50095703125,1.6164106130599976,-7.970666885375977,-2.2544894218444824
1707603240838850600,20.5198505859375,5.932425498962402,-10.8468017578125,-1.1050729751586914
1707603240857744100,20.538744140625,8.318947792053223,-12.493875503540039,-0.8932652473449707
1707603240876637700,20.5576376953125,8.928828239440918,-12.186941146850586,-2.0205299854278564
1707603240895531300,20.57653125,6.986583709716797,-10.565594673156738,-2.5369646549224854
1707603240914424800,20.5954248046875,3.5688347816467285,-9.078006744384766,-2.245455265045166
1707603240933318400,20.614318359375,1.184049367904663,-5.970933437347412,-0.9776196479797363
1707603240952212000,20.6332119140625,-1.5990445613861084,-1.617103099822998,1.8997242450714111
1707603240971105800,20.652105712890624,-3.817002296447754,3.895663261413574,2.791429281234741
1707603240989999000,20.6709990234375,-5.64634895324707,8.41294002532959,1.9072318077087402
1707603241008893000,20.689892822265627,-7.253422737121582,11.213179588317871,0.8440351486206055
1707603241027786500,20.708786376953125,-7.505831241607666,12.935352325439453,1.1115922927856445
1707603241046680000,20.72768017578125,-8.295616149902344,11.780769348144531,0.34136462211608887
1707603241065573600,20.74657373046875,-9.005650520324707,8.648152351379395,-0.6519169807434082
1707603241084467200,20.76546728515625,-7.032984733581543,4.897274017333984,-0.40338945388793945
1707603241103360800,20.78436083984375,-4.000301837921143,1.1102190017700195,-0.9433349370956421
1707603241122254300,20.80325439453125,-2.995032787322998,-4.158210277557373,-0.3932466506958008
1707603241141148000,20.82214794921875,1.558650255203247,-7.386930465698242,0.8797353506088257
1707603241160041500,20.84104150390625,4.541197776794434,-9.020055770874023,-0.7734272480010986
1707603241178935000,20.85993505859375,5.51220703125,-10.21816635131836,-2.506566047668457
1707603241197828600,20.87882861328125,4.50141716003418,-9.855537414550781,-4.519382476806641
1707603241216722200,20.89772216796875,4.21602725982666,-8.650486946105957,-7.125572681427002
1707603241235615700,20.91661572265625,3.4123549461364746,-7.383280277252197,-8.88356876373291
1707603241254509300,20.93550927734375,2.5801186561584473,-6.04449987411499,-7.257436752319336
1707603241273403000,20.95440283203125,2.0843846797943115,-4.338858604431152,-2.48771333694458
1707603241292296400,20.97329638671875,2.201998472213745,-2.6937503814697266,1.449908971786499
1707603241311190300,20.992190185546875,1.724394679069519,-1.0817174911499023,3.0719947814941406
1707603241330083600,21.01108349609375,1.696961760520935,0.5219430923461914,4.231522560119629
1707603241348977400,21.029977294921874,0.8488768935203552,2.9807472229003906,5.587308406829834
1707603241367871000,21.04887109375,-0.5478342771530151,5.4333600997924805,7.407935619354248
1707603241386764500,21.0677646484375,-3.0159354209899902,7.552431106567383,7.785898685455322
1707603241405658000,21.086658203125,-5.402325630187988,8.149117469787598,7.112056732177734
1707603241424551700,21.1055517578125,-7.414024829864502,7.387026786804199,5.826988220214844
1707603241443445200,21.1244453125,-8.384185791015625,5.557633399963379,4.40374755859375
1707603241462338800,21.1433388671875,-7.392363548278809,2.1234846115112305,3.264842987060547
1707603241481232400,21.162232421875,-5.180687427520752,-2.158501148223877,-0.3923560380935669
1707603241500126000,21.1811259765625,-1.792362928390503,-5.4186787605285645,-5.31520414352417
1707603241519019500,21.20001953125,2.5663156509399414,-6.895885467529297,-8.342025756835938
1707603241537913000,21.2189130859375,5.318899154663086,-7.491788864135742,-8.734261512756348
1707603241556806700,21.237806640625,6.142745018005371,-8.514933586120605,-6.586718559265137
1707603241575700500,21.256700439453127,5.6311798095703125,-8.589852333068848,-4.663843154907227
1707603241594593800,21.27559375,4.573585510253906,-6.928503513336182,-3.416569232940674
1707603241613487600,21.294487548828126,2.407223701477051,-5.519493103027344,-1.2602885961532593
1707603241632381200,21.313381103515624,1.3625516891479492,-2.515784740447998,2.8502037525177
1707603241651274800,21.332274658203126,-0.6853587031364441,1.5064630508422852,6.858523368835449
1707603241670168300,21.351168212890624,-3.7746167182922363,4.95604133605957,7.663089275360107
1707603241689062000,21.370061767578125,-5.773430824279785,6.60689640045166,6.846865177154541
1707603241707955500,21.38895556640625,-6.112142562866211,7.5567169189453125,7.028811454772949
1707603241726849000,21.40784912109375,-6.03801155090332,7.206151962280273,7.113000869750977
1707603241745742600,21.42674267578125,-5.236541271209717,5.478913307189941,6.168885707855225
1707603241764636200,21.44563623046875,-3.741581439971924,3.5600786209106445,3.6272103786468506
1707603241783529700,21.46452978515625,-1.9872053861618042,1.2336645126342773,-0.6544628143310547
1707603241802423300,21.48342333984375,-1.6105175018310547,-2.3769421577453613,-4.036922454833984
1707603241821316900,21.50231689453125,2.169034004211426,-5.560927391052246,-3.637040853500366
1707603241840210700,21.521210693359375,6.486080169677734,-5.9240593910217285,-4.093481540679932
1707603241859104000,21.54010400390625,7.090644836425781,-6.525125026702881,-5.339554786682129
1707603241877997800,21.558997802734375,4.38557243347168,-6.188657760620117,-6.170756816864014
1707603241896891400,21.577891357421876,2.1989943981170654,-4.5322136878967285,-7.412591457366943
1707603241915785000,21.596784912109374,-0.2724184989929199,-3.8052923679351807,-8.704113006591797
1707603241934678500,21.615678466796876,-0.4394807815551758,-3.8873343467712402,-8.422346115112305
1707603241953572000,21.634572021484374,0.8448247909545898,-3.7060546875,-7.472546577453613
1707603241972465700,21.653465576171875,2.119954824447632,-3.4489617347717285,-5.202324867248535
1707603241991359200,21.672359130859373,3.7630703449249268,-2.7019708156585693,-0.6746883392333984
1707603242010252800,21.691252685546875,4.548128128051758,-1.0736594200134277,5.220416069030762
1707603242029146400,21.710146484375,4.095261573791504,0.4205362796783447,10.671300888061523
1707603242048040000,21.7290400390625,1.9312806129455566,1.3747351169586182,13.738675117492676
1707603242066933500,21.74793359375,0.6557049751281738,2.2507121562957764,13.327977180480957
1707603242085827000,21.7668271484375,-0.5953480005264282,2.145336151123047,10.48205852508545
1707603242104721000,21.785720947265624,-2.437751293182373,1.381199836730957,7.93756103515625
1707603242123614200,21.8046142578125,-3.099360942840576,0.48671483993530273,7.364180564880371
1707603242142508000,21.823508056640627,-2.8531789779663086,0.1753687858581543,7.808566093444824
1707603242161401600,21.842401611328125,-3.2779345512390137,-0.8691282272338867,6.315371990203857
1707603242180295200,21.861295166015626,-3.781553030014038,-3.164977550506592,3.1032285690307617
1707603242199188700,21.880188720703124,-4.073485374450684,-5.604069709777832,0.14725828170776367
1707603242218082300,21.899082275390626,-3.068951368331909,-7.151535987854004,-2.155910015106201
1707603242236975900,21.917975830078124,-0.8573676347732544,-7.284835338592529,-3.865152597427368
1707603242255869400,21.936869384765625,0.7026902437210083,-7.483368873596191,-4.074203014373779
1707603242274763000,21.955762939453123,1.6684364080429077,-8.467133522033691,-2.1636743545532227
1707603242293656600,21.974656494140625,2.99581241607666,-9.10073471069336,0.6824166774749756
1707603242312550100,21.993550048828126,3.612499237060547,-6.982864856719971,0.781313419342041
1707603242331443700,22.012443603515624,4.2019758224487305,-2.933964729309082,-1.932309627532959
1707603242350337500,22.031337646484374,3.4353320598602295,0.2856931686401367,-3.342101812362671
1707603242369231000,22.050231201171876,0.0068146586418151855,2.2817535400390625,-0.0904117226600647
1707603242388124700,22.069124755859374,-1.4577003717422485,3.9518489837646484,2.2081716060638428
1707603242407018200,22.088018310546875,-0.21081221103668213,5.991591453552246,1.0229943990707397
1707603242425911800,22.106911865234373,-0.3737894296646118,6.859177589416504,0.7960519194602966
1707603242444805400,22.125805419921875,-0.8406843543052673,6.231579780578613,1.2309521436691284
1707603242463699000,22.144698974609376,-1.9871293306350708,5.421085357666016,0.4564793109893799
1707603242501486000,22.182486083984376,-1.7561283111572266,1.4656715393066406,0.10899901390075684
1707603242520379600,22.201379638671874,-1.2552545070648193,-2.650460720062256,1.6018590927124023
1707603242539273200,22.220273193359375,-0.11773109436035156,-6.065532207489014,2.1131036281585693
1707603242558166800,22.239166748046873,1.1699233055114746,-8.768133163452148,1.8617820739746094
1707603242577060400,22.258060302734375,1.2511563301086426,-10.225325584411621,1.9832420349121094
1707603242595954000,22.276953857421876,1.0815696716308594,-9.803475379943848,2.5003035068511963
1707603242614847700,22.29584765625,1.2985868453979492,-7.738986968994141,1.4604592323303223
1707603242633741300,22.3147412109375,3.9972245693206787,-5.13287878036499,-0.11203241348266602
1707603242652635000,22.333634765625,3.36923885345459,-1.5353188514709473,-1.8549599647521973
1707603242671528400,22.352528564453124,2.167163133621216,2.122567653656006,0.11770963668823242
1707603242690422000,22.371422119140625,1.3373451232910156,5.934408187866211,-1.2207207679748535
1707603242709315600,22.390315673828123,-1.0686278343200684,7.465897083282471,-1.9459772109985352
1707603242728209200,22.409209228515625,-5.878374099731445,6.70510196685791,-1.7170138359069824
1707603242747102700,22.428102783203126,-8.476741790771484,5.7708353996276855,-2.109307289123535
1707603242765996300,22.446996337890624,-7.399590015411377,5.452813625335693,-3.240316390991211
1707603242784889900,22.465889892578126,-4.836139678955078,5.383602142333984,-4.132222652435303
1707603242803783400,22.484783447265624,-3.2044224739074707,4.704451084136963,-3.202286720275879
1707603242822677000,22.503677001953125,-2.798175096511841,3.000326156616211,-1.7339177131652832
1707603242841570600,22.522570556640623,-2.9892537593841553,0.841825008392334,-0.08367633819580078
1707603242860558300,22.541558349609375,-2.5296735763549805,-1.7446212768554688,2.28749942779541
1707603242879357700,22.560357666015626,-2.2109532356262207,-4.609453201293945,4.218143463134766
1707603242898251500,22.57925146484375,0.3451082706451416,-6.875794887542725,3.9216058254241943
1707603242917145000,22.59814501953125,1.8936290740966797,-7.797996997833252,3.0210986137390137
1707603242936038700,22.61703857421875,2.5562825202941895,-7.632029056549072,2.4604785442352295
1707603242954932200,22.63593212890625,3.285329818725586,-7.576219081878662,2.3816978931427
1707603242973825800,22.65482568359375,4.5899977684021,-5.748965263366699,1.6746463775634766
1707603242992719400,22.67371923828125,4.314788341522217,-2.3121871948242188,1.4056191444396973
1707603243011613000,22.692613037109375,2.922950506210327,0.8122944831848145,0.6475725173950195
1707603243030506500,22.711506591796876,-0.5749101638793945,3.108196258544922,0.14935302734375
1707603243049400000,22.730400146484374,-2.477881908416748,5.703713893890381,-2.0549135208129883
1707603243068293600,22.749293701171876,-3.0396156311035156,8.473719596862793,-3.8841018676757812
1707603243087187200,22.768187255859374,-3.3201324939727783,9.767476081848145,-3.1522774696350098
1707603243106080800,22.787080810546875,-4.46438455581665,9.255559921264648,-1.198256015777588
1707603243124974600,22.805974609375,-5.206367015838623,7.176982879638672,-0.023801803588867188
1707603243143868000,22.824867919921875,-3.340054988861084,4.387470722198486,-0.4776287078857422
1707603243162761700,22.84376171875,-1.8401973247528076,0.6622638702392578,-1.019599437713623
1707603243181655300,22.8626552734375,-1.3128376007080078,-3.6978988647460938,0.2897200584411621
1707603243200548900,22.881548828125,-0.10818243026733398,-6.822044849395752,1.7465732097625732
1707603243219442400,22.9004423828125,1.4252874851226807,-8.8001127243042,2.6106128692626953
1707603243238336000,22.9193359375,4.8057661056518555,-9.454628944396973,3.6364896297454834
1707603243257229600,22.9382294921875,5.229498863220215,-10.504438400268555,3.5197901725769043
1707603243276123100,22.957123046875,2.7635915279388428,-10.710243225097656,2.1204516887664795
1707603243295016700,22.9760166015625,2.1711556911468506,-8.042885780334473,0.6017580032348633
1707603243313910300,22.99491015625,0.436171293258667,-3.1934099197387695,-1.2914772033691406
1707603243332803800,23.013803955078124,-1.481646180152893,2.5971732139587402,-1.933454990386963
1707603243351697400,23.032697509765626,-3.0248711109161377,7.304945945739746,-0.30988311767578125
1707603243370591200,23.05159130859375,-3.919295310974121,9.28972053527832,-1.5708742141723633
1707603243389484800,23.07048486328125,-4.674774169921875,9.675537109375,-3.201226234436035
1707603243408378000,23.089378173828123,-5.5490007400512695,9.474726676940918,-3.1473536491394043
1707603243427272000,23.10827197265625,-5.776507377624512,8.284263610839844,-2.094590663909912
1707603243446165500,23.12716552734375,-5.811838150024414,5.744589805603027,-0.7191166877746582
1707603243465059000,23.14605908203125,-4.881465911865234,2.8368759155273438,-0.29561424255371094
1707603243483952600,23.16495263671875,-3.3604516983032227,0.5067577362060547,-0.15918350219726562
1707603243502846200,23.18384619140625,-2.333087205886841,-1.8473148345947266,-1.0556793212890625
1707603243521739800,23.20273974609375,-1.5476702451705933,-5.27750825881958,-0.6927647590637207
1707603243540633300,23.22163330078125,0.09663915634155273,-8.402656555175781,1.8809070587158203
1707603243559527000,23.24052685546875,2.6516494750976562,-11.089883804321289,3.639008045196533
1707603243578420500,23.25942041015625,4.785012245178223,-12.992311477661133,4.15105676651001
1707603243597314000,23.27831396484375,6.141601085662842,-13.124418258666992,2.150090217590332
1707603243616207600,23.29720751953125,6.756917953491211,-11.08216667175293,-0.8825163841247559
1707603243635101400,23.316101318359376,5.407936096191406,-7.504552364349365,-2.3475756645202637
1707603243653995000,23.3349951171875,1.4526071548461914,-1.7402620315551758,-2.722428798675537
1707603243672888600,23.353888671875,-0.64815354347229,4.3208136558532715,-0.714714527130127
1707603243691782100,23.3727822265625,-1.8729948997497559,8.556360244750977,-0.6143317222595215
1707603243710675700,23.39167578125,-4.828336238861084,9.658791542053223,-1.1197810173034668
1707603243729569300,23.4105693359375,-6.514814376831055,8.591093063354492,-1.103154182434082
1707603243748462800,23.429462890625,-7.727993965148926,6.296402931213379,-0.8333344459533691
1707603243767356400,23.4483564453125,-8.09167194366455,3.7353591918945312,-1.1652979850769043
1707603243786250000,23.46725,-6.088807106018066,0.9711904525756836,-0.025660037994384766
1707603243805143600,23.4861435546875,-4.236530303955078,-1.6545753479003906,0.5913355350494385
1707603243824037000,23.505037109375,-1.0747638940811157,-3.9007625579833984,-0.5892553329467773
1707603243842931000,23.523930908203123,2.1607272624969482,-6.395322322845459,-1.3774070739746094
1707603243861824300,23.54282421875,4.838433265686035,-8.053546905517578,-1.9463584423065186
1707603243880718000,23.561718017578126,6.583642959594727,-9.086771965026855,-2.5211052894592285
1707603243899611600,23.580611572265624,6.182129859924316,-9.434473037719727,-3.598752021789551
1707603243918505200,23.599505126953126,4.830377578735352,-8.356164932250977,-5.008029460906982
1707603243937398800,23.618398681640624,2.908133029937744,-6.629082679748535,-3.9937596321105957
1707603243956292400,23.637292236328125,0.322081983089447,-3.387660503387451,-1.2066280841827393
1707603243975186000,23.65618603515625,-2.3773984909057617,0.905181884765625,3.41542911529541
1707603243994079500,23.67507958984375,-3.4111900329589844,3.962116241455078,6.401331901550293
1707603244012973000,23.69397314453125,-4.734371662139893,6.5598602294921875,5.25950813293457
1707603244031866600,23.71286669921875,-4.589410781860352,8.48656177520752,4.39213228225708
1707603244050760200,23.73176025390625,-4.528747081756592,9.160074234008789,3.736687660217285
1707603244069653800,23.75065380859375,-4.408653259277344,7.7413787841796875,3.6236469745635986
1707603244088547300,23.76954736328125,-3.8212814331054688,5.348952293395996,3.139092445373535
1707603244107441200,23.788441162109375,-1.9125463962554932,2.5940065383911133,2.7535133361816406
1707603244126334500,23.80733447265625,0.8393893241882324,-0.9478940963745117,1.5753989219665527
1707603244145228300,23.826228271484375,4.283003330230713,-4.979518890380859,-0.47900891304016113
1707603244164121900,23.845121826171876,6.442927360534668,-7.620408058166504,-2.663405418395996
1707603244183015400,23.864015380859374,5.938796520233154,-8.611886978149414,-2.821047306060791
1707603244201909000,23.882908935546876,4.843284606933594,-7.579707622528076,-4.564079284667969
1707603244220802600,23.901802490234374,3.3528409004211426,-6.268861770629883,-7.734966278076172
1707603244239696100,23.920696044921876,1.0009757280349731,-5.495947360992432,-7.239561557769775
1707603244258589700,23.939589599609373,-0.7006680965423584,-4.583770751953125,-3.848015785217285
1707603244277483300,23.958483154296875,-2.245840072631836,-2.934321880340576,-2.001328468322754
1707603244296376800,23.977376953125,-2.7034480571746826,-0.8368911743164062,-1.301759958267212
1707603244315270400,23.9962705078125,-2.465503454208374,0.8163900375366211,0.9605395793914795
1707603244334164000,24.0151640625,-0.29847002029418945,2.369709014892578,7.2747979164123535
