time,seconds_elapsed,z,y,x
1707576804969192400,0.0361923828125,0,0,0
1707576804988085000,0.0550849609375,0.014173507690429688,-0.543525218963623,0.30154627561569214
1707576805006977500,0.0739775390625,0.016513824462890625,0.01705646514892578,0.4069325029850006
1707576805025870000,0.0928701171875,-0.4440574645996094,0.23372364044189453,0.23120036721229553
1707576805044762600,0.1117626953125,-0.8556804656982422,-0.2253732681274414,0.06589899212121964
1707576805063655400,0.130655517578125,-0.5920553207397461,0.2537240982055664,-0.2622353136539459
1707576805082548000,0.1495478515625,-0.1792888641357422,0.4527397155761719,-0.3905423581600189
1707576805101440500,0.1684404296875,-0.30922603607177734,0.10715293884277344,-0.09165789186954498
1707576805120333000,0.1873330078125,-0.6268386840820312,0.031366825103759766,0.0504688136279583
1707576805139225600,0.2062255859375,-0.7596969604492188,0.14781999588012695,-0.29148560762405396
1707576805158118100,0.2251181640625,-0.2704486846923828,0.39770030975341797,-0.9480571746826172
1707576805177010700,0.2440107421875,-0.26547813415527344,0.2906489372253418,-0.7698633074760437
1707576805195903200,0.2629033203125,-0.4211297035217285,0.06087923049926758,-0.3721265196800232
1707576805214795800,0.281795654296875,-0.42130374908447266,0.1679830551147461,-0.4795457422733307
1707576805233688300,0.300688232421875,0.2142353057861328,0.4563450813293457,-0.6425141096115112
1707576805252580900,0.319580810546875,0.833338737487793,0.21136903762817383,-0.3635345995426178
1707576805271473400,0.338473388671875,0.6311187744140625,0.12139463424682617,-0.3457545042037964
1707576805290366000,0.357365966796875,0.17617416381835938,-0.09952783584594727,-0.1096089631319046
1707576805309258500,0.376258544921875,-0.2345266342163086,-0.26126956939697266,0.09874320030212402
1707576805328151000,0.395151123046875,0.4077415466308594,-0.3001728057861328,0.8881149291992188
1707576805347043600,0.414043701171875,0.6026268005371094,-0.18045520782470703,1.1205921173095703
1707576805365936000,0.43293603515625,0.9205484390258789,-0.1185464859008789,1.1100980043411255
1707576805384828700,0.45182861328125,0.7509803771972656,0.0878448486328125,0.477064847946167
1707576805403721200,0.47072119140625,0.022752761840820312,-0.007999420166015625,0.6912168860435486
1707576805422613800,0.48961376953125,0.327362060546875,-0.5203285217285156,0.7515000104904175
1707576805441506300,0.50850634765625,0.42845630645751953,-0.5159437656402588,0.7417243123054504
1707576805460398800,0.52739892578125,-0.18504619598388672,-0.3789515495300293,0.8798956871032715
1707576805479291400,0.54629150390625,-1.054647445678711,-0.1412825584411621,1.1379354000091553
1707576805498184000,0.565183837890625,-1.238595962524414,0.10982227325439453,0.6196840405464172
1707576805517076500,0.584076416015625,0.06772041320800781,0.5355410575866699,-0.362914502620697
1707576805535969000,0.602968994140625,0.8374557495117188,1.2655892372131348,-1.1567401885986328
1707576805554861800,0.62186181640625,1.7231616973876953,0.7692222595214844,-0.5060567855834961
1707576805573754000,0.640754150390625,1.7376289367675781,0.5210075378417969,0.12327873706817627
1707576805592647000,0.65964697265625,1.8401155471801758,0.7451543807983398,0.278941810131073
1707576805611539200,0.678539306640625,2.5539026260375977,0.7987957000732422,-0.4401612877845764
1707576805630432000,0.697431884765625,4.564719200134277,0.9810738563537598,-0.7987246513366699
1707576805649324300,0.71632421875,4.282430648803711,0.4301447868347168,-0.7780495882034302
1707576805668217000,0.735217041015625,3.82608699798584,0.7803821563720703,-1.1380685567855835
1707576805687109600,0.754109619140625,3.797849655151367,0.7852225303649902,-0.9342224597930908
1707576805706002200,0.773002197265625,3.578005313873291,0.34708690643310547,-0.07201766967773438
1707576805724894700,0.791894775390625,3.7648391723632812,0.05447816848754883,0.23334169387817383
1707576805743787300,0.810787353515625,4.036575794219971,-0.9839363098144531,-0.30612826347351074
1707576805762679800,0.8296796875,3.344883441925049,-1.8728094100952148,-1.2900898456573486
1707576805781572400,0.848572265625,2.489927291870117,-3.1280698776245117,-2.0755836963653564
1707576805800465000,0.86746484375,1.753453254699707,-4.290981292724609,-2.998371124267578
1707576805819357400,0.886357421875,0.6536104679107666,-4.746941566467285,-3.0984647274017334
1707576805838250000,0.90525,0.43834197521209717,-5.086414337158203,-2.545560359954834
1707576805857142500,0.924142578125,0.7131645679473877,-5.297823429107666,-2.482131004333496
1707576805876035000,0.94303515625,1.2933363914489746,-5.455678939819336,-1.7109413146972656
1707576805894927600,0.961927734375,0.9561340808868408,-4.84455680847168,-1.5705924034118652
1707576805913820200,0.980820068359375,-0.47180843353271484,-4.160796165466309,-1.0025075674057007
1707576805932712700,0.999712646484375,-2.0713601112365723,-2.8258609771728516,0.18154847621917725
1707576805951605200,1.018605224609375,-4.348671913146973,-1.7899837493896484,0.964451014995575
1707576805970497800,1.037497802734375,-6.955802917480469,-0.6181106567382812,1.3494418859481812
1707576805989390300,1.056390380859375,-9.636370658874512,-0.6308660507202148,1.2552845478057861
1707576806008283000,1.075282958984375,-10.647953987121582,-1.0935850143432617,-0.2963094413280487
1707576806027175400,1.094175537109375,-9.056742668151855,-1.815164566040039,-1.7614495754241943
1707576806046068000,1.11306787109375,-7.046685218811035,-1.5896196365356445,-2.762612819671631
1707576806064960500,1.13196044921875,-5.815377235412598,-1.2263946533203125,-2.9225268363952637
1707576806083853000,1.15085302734375,-4.500061988830566,-0.7583446502685547,-3.040360689163208
1707576806102745600,1.16974560546875,-2.431943416595459,-0.9673538208007812,-3.243095636367798
1707576806121638100,1.18863818359375,0.851189374923706,-0.9025306701660156,-2.683232069015503
1707576806140530700,1.20753076171875,3.2549352645874023,-0.8613014221191406,-1.5383036136627197
1707576806159423500,1.226423583984375,4.412721633911133,-0.2697019577026367,0.3286334276199341
1707576806178315800,1.245315673828125,3.9979429244995117,-0.6198492050170898,1.0093395709991455
1707576806197208600,1.26420849609375,3.379279613494873,-0.9687089920043945,0.2392268180847168
1707576806216100900,1.283100830078125,3.2394943237304688,-1.7405281066894531,-1.0961170196533203
1707576806234993400,1.301993408203125,3.054955244064331,-2.473324775695801,-2.149207830429077
1707576806253886000,1.320885986328125,2.622744083404541,-3.201395034790039,-2.6477019786834717
1707576806272778500,1.339778564453125,2.7464256286621094,-3.8751840591430664,-3.073512554168701
1707576806291671300,1.35867138671875,3.186213970184326,-4.455389499664307,-3.2848527431488037
1707576806310563600,1.3775634765625,3.8609561920166016,-4.910544395446777,-3.2296416759490967
1707576806329456400,1.396456298828125,4.477144241333008,-5.249781131744385,-3.158292055130005
1707576806348348700,1.4153486328125,4.955357551574707,-5.409848213195801,-2.747581720352173
1707576806367241500,1.434241455078125,4.938511371612549,-5.668056011199951,-2.2189226150512695
1707576806386134000,1.453134033203125,4.748754501342773,-5.699834823608398,-0.5960511565208435
1707576806405026600,1.472026611328125,4.406877517700195,-4.824397563934326,1.255861759185791
1707576806423919000,1.490919189453125,2.679330348968506,-3.5719246864318848,1.2432907819747925
1707576806442811600,1.509811767578125,-1.1050167083740234,-2.272650718688965,1.0130759477615356
1707576806461704200,1.5287041015625,-4.5346455574035645,-0.7152533531188965,1.4072729349136353
1707576806480596700,1.5475966796875,-6.285078048706055,0.8887343406677246,2.251183271408081
1707576806499489300,1.5664892578125,-7.674674034118652,1.7142362594604492,2.8157126903533936
1707576806518381800,1.5853818359375,-7.46083927154541,2.0924930572509766,2.400895118713379
1707576806537274400,1.6042744140625,-6.218000888824463,2.206295967102051,1.3094042539596558
1707576806556167000,1.6231669921875,-5.047078609466553,2.0125293731689453,0.3168989419937134
1707576806575059500,1.6420595703125,-4.28906774520874,1.6096539497375488,0.447048544883728
1707576806593952000,1.660951904296875,-4.450835227966309,1.216801643371582,0.13470983505249023
1707576806612844500,1.679844482421875,-5.3983845710754395,0.3961820602416992,-0.5874431133270264
1707576806631737000,1.698737060546875,-6.544441223144531,-0.43993043899536133,-1.2515242099761963
1707576806650629600,1.717629638671875,-6.8508758544921875,-0.8996973037719727,-1.8290364742279053
1707576806669522200,1.736522216796875,-7.043516635894775,-1.6701922416687012,-2.1786882877349854
1707576806688414700,1.755414794921875,-6.403825283050537,-2.0124902725219727,-2.3467390537261963
1707576806707307300,1.774307373046875,-5.34635066986084,-2.086977005004883,-2.2402334213256836
1707576806726199800,1.79319970703125,-4.4901885986328125,-2.027812957763672,-1.7205753326416016
1707576806745092400,1.81209228515625,-4.0051422119140625,-2.1608223915100098,-1.3443471193313599
1707576806763985000,1.83098486328125,-2.9028308391571045,-2.1980648040771484,-1.587558388710022
1707576806782877400,1.84987744140625,-1.0811662673950195,-2.0660486221313477,-2.2605719566345215
1707576806801770000,1.86877001953125,-0.41180652379989624,-2.1891441345214844,-2.079941511154175
1707576806820662500,1.88766259765625,1.1060656309127808,-1.8412718772888184,-1.6817349195480347
1707576806839555000,1.90655517578125,2.042635917663574,-1.1387100219726562,-0.6147013902664185
1707576806858447600,1.925447509765625,2.06819486618042,-0.49433422088623047,0.9132017493247986
1707576806877340200,1.944340087890625,2.392561674118042,0.02984619140625,1.9657684564590454
1707576806896232700,1.963232666015625,3.1186892986297607,0.2205514907836914,1.939342975616455
1707576806915125200,1.982125244140625,4.219666004180908,0.040040016174316406,1.2176133394241333
1707576806934017800,2.001017822265625,5.228948593139648,-0.5271320343017578,0.18712937831878662
1707576806952910300,2.019910400390625,6.1790971755981445,-1.1856880187988281,-0.9178181886672974
1707576806971803000,2.038802978515625,6.966277122497559,-2.0883827209472656,-1.9245949983596802
1707576806990695400,2.0576953125,6.880921363830566,-3.090703010559082,-2.1891589164733887
1707576807009588000,2.076587890625,6.513769626617432,-3.9616270065307617,-1.2936432361602783
1707576807028480500,2.09548046875,5.849032402038574,-4.713109970092773,-0.8690286874771118
1707576807047373000,2.114373046875,4.926416873931885,-5.267756462097168,-1.224041223526001
1707576807066265600,2.133265625,3.8652889728546143,-5.655612468719482,-1.7414164543151855
1707576807085158100,2.152158203125,2.8495240211486816,-5.708893775939941,-2.2206296920776367
1707576807104050700,2.17105078125,1.6590070724487305,-5.3248066902160645,-2.2098631858825684
1707576807122943200,2.189943115234375,0.040879011154174805,-4.503329277038574,-1.2992174625396729
1707576807141835800,2.208835693359375,-1.2861371040344238,-3.4754834175109863,0.9543855786323547
1707576807160728300,2.227728271484375,-2.0064921379089355,-2.1185107231140137,2.3377034664154053
1707576807179620900,2.246620849609375,-2.3567237854003906,-0.8682255744934082,2.461487054824829
1707576807198513400,2.265513427734375,-2.698068141937256,0.41126441955566406,2.2011661529541016
1707576807217406000,2.284406005859375,-2.6938509941101074,1.3989477157592773,2.188915252685547
1707576807236298500,2.303298583984375,-2.4845900535583496,2.017301082611084,2.420133352279663
1707576807255191000,2.32219091796875,-2.0360565185546875,2.278230667114258,1.8884751796722412
1707576807274083600,2.34108349609375,-1.2173190116882324,2.6193785667419434,1.5556998252868652
1707576807292976000,2.35997607421875,-0.9364414215087891,2.872894763946533,1.4175419807434082
1707576807311868700,2.37886865234375,-1.6318044662475586,3.007923126220703,1.2239463329315186
1707576807330761200,2.39776123046875,-2.9287548065185547,2.6955161094665527,0.9371390342712402
1707576807349653800,2.41665380859375,-4.2244486808776855,2.1385178565979004,0.6136317253112793
1707576807368546300,2.43554638671875,-5.254508018493652,1.1893367767333984,-0.3018181324005127
1707576807387438800,2.45443896484375,-6.049633979797363,0.28539514541625977,-0.9637801647186279
1707576807406331400,2.473331298828125,-6.674584865570068,-0.7824125289916992,-1.5711565017700195
1707576807425224000,2.492223876953125,-6.120588779449463,-1.572171688079834,-2.5267975330352783
1707576807444116500,2.511116455078125,-5.803437232971191,-2.145336627960205,-3.2212231159210205
1707576807463009000,2.530009033203125,-5.298883438110352,-2.6617660522460938,-2.90398907661438
1707576807481901800,2.54890185546875,-4.274848461151123,-2.871662139892578,-2.9685261249542236
1707576807500794000,2.567794189453125,-2.6345608234405518,-2.6984386444091797,-3.4596149921417236
1707576807519686700,2.586686767578125,-0.9791734218597412,-2.1085166931152344,-3.132566452026367
1707576807538579200,2.6055791015625,0.20892512798309326,-1.2521753311157227,-1.707645297050476
1707576807557471700,2.6244716796875,0.7377147078514099,-0.23691272735595703,0.5059278011322021
1707576807576364300,2.6433642578125,0.520666778087616,0.6360664367675781,1.80279541015625
1707576807595256800,2.6622568359375,0.21701613068580627,1.3462677001953125,1.6578253507614136
1707576807614149600,2.681149658203125,-0.21662220358848572,1.5232572555541992,0.9457002878189087
1707576807633042000,2.7000419921875,-0.264141321182251,1.2301826477050781,0.13085830211639404
1707576807651934700,2.718934814453125,0.49655723571777344,0.7801198959350586,-0.3807269334793091
1707576807670827000,2.737826904296875,1.0363459587097168,0.39578723907470703,-1.0221097469329834
1707576807689719600,2.756719482421875,1.2318737506866455,-0.09663581848144531,-1.0924758911132812
1707576807708612400,2.7756123046875,1.5158545970916748,-0.7665500640869141,-1.5588749647140503
1707576807727504600,2.794504638671875,2.1955294609069824,-1.488631248474121,-2.6838860511779785
1707576807746397400,2.8133974609375,2.475522756576538,-2.437624931335449,-3.746317148208618
1707576807765289700,2.832289794921875,2.9464595317840576,-3.2909936904907227,-4.872278213500977
1707576807784182500,2.8511826171875,3.1039886474609375,-4.325817108154297,-5.457623481750488
1707576807803074800,2.87007470703125,3.2182765007019043,-5.094775676727295,-4.336772918701172
1707576807821967600,2.888967529296875,4.696442604064941,-5.462775707244873,-1.4301482439041138
1707576807840860200,2.907860107421875,6.9750285148620605,-5.210944652557373,0.1149287223815918
1707576807859752400,2.92675244140625,8.01050853729248,-5.032742500305176,-0.09045982360839844
1707576807878645200,2.945645263671875,6.414601802825928,-5.100246429443359,-1.5190227031707764
1707576807897537500,2.96453759765625,4.047555923461914,-4.406290054321289,-2.557008981704712
1707576807916430300,2.983430419921875,1.3638625144958496,-3.532853126525879,-3.9191384315490723
1707576807935322600,3.002322509765625,-1.482011318206787,-2.295433521270752,-4.4172587394714355
1707576807954215400,3.02121533203125,-2.870323657989502,-0.8665804862976074,-2.7260217666625977
1707576807973108000,3.04010791015625,-2.7932004928588867,-0.0731663703918457,-0.6654160022735596
1707576807992000500,3.05900048828125,-1.3938050270080566,0.37236833572387695,2.1317389011383057
1707576808010893000,3.07789306640625,0.18286943435668945,0.1383814811706543,4.322494029998779
1707576808029785300,3.096785400390625,0.8052568435668945,-0.10239696502685547,4.436627388000488
1707576808048678100,3.11567822265625,-0.3087000846862793,0.12659692764282227,4.830379009246826
1707576808067570400,3.1345703125,-2.013003349304199,1.201280117034912,5.32524299621582
1707576808086463200,3.153463134765625,-2.67905855178833,1.6651287078857422,6.677380561828613
1707576808105355800,3.172355712890625,-2.9759726524353027,1.5452194213867188,6.748648166656494
1707576808124248300,3.191248291015625,-4.581779956817627,0.4113807678222656,5.523958206176758
1707576808143140900,3.210140869140625,-6.441300868988037,-0.5593867301940918,3.303887367248535
1707576808162033400,3.229033447265625,-6.601132869720459,-0.8442139625549316,2.347519636154175
1707576808180926000,3.247926025390625,-6.081364154815674,-0.9963116645812988,2.4088635444641113
1707576808199818500,3.266818603515625,-6.893036842346191,-1.562520980834961,1.8423678874969482
1707576808218711000,3.2857109375,-7.955255508422852,-2.340137004852295,0.7180566787719727
1707576808237603600,3.304603515625,-7.690845966339111,-2.935497283935547,-0.7039694786071777
1707576808256496000,3.32349609375,-6.374194622039795,-2.947208881378174,-0.5163755416870117
1707576808275388700,3.342388671875,-4.978366851806641,-2.9378743171691895,0.5750774145126343
1707576808294281200,3.36128125,-3.4256269931793213,-2.7149062156677246,0.6717000007629395
1707576808313173800,3.380173828125,-2.8674869537353516,-2.478404998779297,0.5198321342468262
1707576808332066300,3.39906640625,-2.9555790424346924,-2.14339017868042,0.40084588527679443
1707576808350958800,3.417958740234375,-2.6442131996154785,-1.8551301956176758,0.47315657138824463
1707576808369851400,3.436851318359375,-1.6019549369812012,-1.36358642578125,0.7998359203338623
1707576808388744000,3.455743896484375,-0.8400627374649048,-0.8871183395385742,1.0923700332641602
1707576808407636500,3.474636474609375,-0.5353518724441528,-0.5331201553344727,1.3509598970413208
1707576808426529000,3.493529052734375,-0.2847777009010315,-0.41364479064941406,1.2748154401779175
1707576808445421600,3.512421630859375,-0.19570642709732056,-0.9343709945678711,1.8414989709854126
1707576808464314000,3.531314208984375,0.2919790744781494,-1.0719919204711914,1.2722055912017822
1707576808483206700,3.55020654296875,1.2189514636993408,-1.0362510681152344,1.6416893005371094
1707576808502099200,3.56909912109375,2.5241873264312744,-0.9406023025512695,1.0080300569534302
1707576808520991700,3.58799169921875,3.741271734237671,-0.9166526794433594,-0.7041674852371216
1707576808539884300,3.60688427734375,4.5284743309021,-0.7962446212768555,-2.3423960208892822
1707576808558776800,3.62577685546875,4.847832679748535,-0.8371877670288086,-3.745826482772827
1707576808577670100,3.644670166015625,4.992814540863037,-1.2553339004516602,-5.237193584442139
1707576808596562700,3.663562744140625,5.422915458679199,-1.8056020736694336,-5.455873966217041
1707576808615454700,3.682454833984375,5.36450719833374,-2.4925971031188965,-5.526853084564209
1707576808634347300,3.70134716796875,5.133301258087158,-3.322206497192383,-5.99989652633667
1707576808653239800,3.72023974609375,4.781893730163574,-4.160181522369385,-6.612578868865967
1707576808672132400,3.73913232421875,4.186079978942871,-5.0671491622924805,-7.331343173980713
1707576808691025000,3.75802490234375,3.929306983947754,-6.165376663208008,-6.537309646606445
1707576808709917400,3.77691748046875,4.629222393035889,-6.475592136383057,-2.7406487464904785
1707576808728810000,3.79581005859375,5.711906433105469,-5.585817337036133,1.4633166790008545
1707576808747702500,3.81470263671875,6.275442123413086,-4.2547407150268555,3.1158549785614014
1707576808766595000,3.833594970703125,5.245144844055176,-3.3316426277160645,3.9779298305511475
1707576808785487600,3.852487548828125,2.725064754486084,-1.9445128440856934,5.09293270111084
1707576808804380200,3.871380126953125,-1.7827157974243164,-0.7354955673217773,2.594222068786621
1707576808823272700,3.890272705078125,-4.365701198577881,-0.21943330764770508,1.424001693725586
1707576808842165200,3.909165283203125,-1.9091625213623047,0.591639518737793,1.5296220779418945
1707576808861057800,3.928057861328125,1.624730110168457,0.6612491607666016,3.4393911361694336
1707576808879950300,3.946950439453125,2.2691006660461426,0.4678025245666504,3.867885112762451
1707576808898843000,3.9658427734375,-0.6673917770385742,-0.17043399810791016,2.2654929161071777
1707576808917735400,3.9847353515625,-2.1605162620544434,-0.1375880241394043,2.7145376205444336
1707576808936628000,4.0036279296875,-2.6736602783203125,-0.09354400634765625,3.9518699645996094
1707576808955520500,4.0225205078125,-2.643308162689209,-0.05988597869873047,4.271018981933594
1707576808974413000,4.0414130859375,-3.9311327934265137,-0.34951066970825195,3.4499969482421875
1707576808993305600,4.0603056640625,-5.925041675567627,-0.25476598739624023,3.055809259414673
1707576809012198100,4.0791982421875,-7.58362340927124,-0.5333671569824219,2.7186012268066406
1707576809031090700,4.098090576171875,-7.7302374839782715,-0.7127571105957031,2.280860662460327
1707576809049983200,4.116983154296875,-7.213970184326172,-1.2480926513671875,2.5678882598876953
1707576809068875800,4.135875732421875,-6.837944507598877,-1.5496106147766113,1.4082927703857422
1707576809087768300,4.154768310546875,-6.399805068969727,-1.7939205169677734,1.3841488361358643
1707576809106660900,4.173660888671875,-5.405797481536865,-2.0603346824645996,1.281651258468628
1707576809125553400,4.192553466796875,-4.592478275299072,-2.18404483795166,1.0843068361282349
1707576809144446000,4.211446044921875,-4.672976493835449,-2.5687713623046875,0.08816349506378174
1707576809163338500,4.23033837890625,-3.4548914432525635,-2.7347755432128906,-0.21823740005493164
1707576809182231000,4.24923095703125,-1.8197343349456787,-2.395956039428711,-0.3191651701927185
1707576809201123600,4.26812353515625,-1.3004775047302246,-2.1885690689086914,-0.43785375356674194
1707576809220016000,4.28701611328125,-1.3913829326629639,-2.005645275115967,-0.9389495849609375
1707576809238908700,4.30590869140625,-1.9049588441848755,-2.2947421073913574,-1.3335762023925781
1707576809257801200,4.32480126953125,-1.0138416290283203,-2.4924025535583496,-1.4847322702407837
1707576809276693800,4.34369384765625,-0.6205627918243408,-2.4656753540039062,-1.5210144519805908
1707576809295586300,4.36258642578125,-0.29902124404907227,-2.4324426651000977,-1.6037076711654663
1707576809314478800,4.381478759765625,-0.7181715965270996,-2.52777099609375,-2.0813324451446533
1707576809333371400,4.400371337890625,-1.524957299232483,-2.8564906120300293,-2.363903760910034
1707576809352264000,4.419263916015625,-2.282036781311035,-3.2307934761047363,-2.870378255844116
1707576809371156500,4.438156494140625,-2.4293019771575928,-3.7136974334716797,-2.6425275802612305
1707576809390049000,4.457049072265625,-2.2517762184143066,-4.146374702453613,-2.1706817150115967
1707576809408941600,4.475941650390625,-1.289778709411621,-4.464207172393799,-0.6831114292144775
1707576809427834000,4.494834228515625,0.9604048728942871,-4.4585466384887695,0.33506473898887634
1707576809446726700,4.5137265625,2.1134438514709473,-3.967833995819092,-0.9410317540168762
1707576809465619200,4.532619140625,2.0969138145446777,-4.131021976470947,-2.329972982406616
1707576809484511700,4.55151171875,3.7469682693481445,-4.187232971191406,-2.1165149211883545
1707576809503404300,4.570404296875,4.819254398345947,-3.918975830078125,-2.028519868850708
1707576809522296800,4.589296875,4.5378737449646,-3.9226841926574707,-2.4999501705169678
1707576809541189400,4.608189453125,4.551906585693359,-3.438262462615967,-4.176830291748047
1707576809560082000,4.62708203125,5.3896918296813965,-2.935706615447998,-3.7216200828552246
1707576809578974500,4.645974365234375,7.591632843017578,-2.1826701164245605,-2.0554914474487305
1707576809597867000,4.664866943359375,9.303686141967773,-1.1564116477966309,-0.32867538928985596
1707576809616759600,4.683759521484375,4.2276506423950195,2.4674549102783203,1.7139241695404053
1707576809635652000,4.702652099609375,12.06295108795166,0.4364166259765625,3.9744327068328857
1707576809654544600,4.721544677734375,8.90562629699707,1.569223403930664,3.47096848487854
1707576809673437200,4.740437255859375,5.635204792022705,2.4560351371765137,4.153835296630859
1707576809692330000,4.759330078125,2.3870410919189453,2.0191407203674316,4.504341125488281
1707576809711222300,4.77822216796875,0.46849870681762695,0.8355259895324707,2.5393261909484863
1707576809730115000,4.797114990234375,-1.6954580545425415,-0.09993743896484375,2.252882957458496
1707576809749007400,4.81600732421875,-3.5522937774658203,-0.35185813903808594,3.6133317947387695
1707576809767900000,4.83489990234375,-4.488865852355957,-0.31346988677978516,3.5397067070007324
1707576809786792400,4.85379248046875,-5.034317493438721,-1.0206518173217773,2.704298973083496
1707576809805685000,4.87268505859375,-4.8138933181762695,-1.1732263565063477,1.936058521270752
1707576809824577800,4.891577880859375,-4.356572151184082,-1.005340576171875,1.3715248107910156
1707576809843470000,4.910469970703125,-3.141228675842285,-0.7547731399536133,1.5125806331634521
1707576809862363000,4.92936279296875,-2.461318016052246,-0.6227407455444336,1.9288880825042725
1707576809881255200,4.948255126953125,-3.0841946601867676,-0.6427001953125,1.6533446311950684
1707576809900148000,4.96714794921875,-4.506375312805176,-1.1244468688964844,1.1448345184326172
1707576809919040300,4.986040283203125,-5.2248735427856445,-1.5502347946166992,0.3346400260925293
1707576809937932800,5.004932861328125,-5.368612289428711,-2.0910162925720215,-0.5765060186386108
1707576809956825600,5.02382568359375,-5.572083950042725,-2.6919403076171875,-1.389141321182251
1707576809975718000,5.0427177734375,-6.151451110839844,-3.175962448120117,-2.1460020542144775
1707576809994610700,5.061610595703125,-6.7652482986450195,-3.6810712814331055,-2.821657180786133
1707576810013503000,5.0805029296875,-6.813995361328125,-4.06271505355835,-3.7809739112854004
1707576810032395800,5.099395751953125,-6.2055559158325195,-4.183758735656738,-3.949023723602295
1707576810051288300,5.118288330078125,-4.980673313140869,-4.073821067810059,-3.127234935760498
1707576810070180900,5.137180908203125,-3.2316393852233887,-3.8001322746276855,-1.4982357025146484
1707576810089073400,5.156073486328125,-1.1928229331970215,-3.314286708831787,0.2586176097393036
1707576810107965700,5.174965576171875,-0.5709223747253418,-2.623790740966797,0.9914414286613464
1707576810126858500,5.1938583984375,-1.1427240371704102,-2.5913734436035156,1.0082108974456787
1707576810145750800,5.212750732421875,-0.5489015579223633,-1.9086956977844238,2.1484150886535645
1707576810164643600,5.2316435546875,0.3065357208251953,-1.769700527191162,1.3710039854049683
1707576810183536000,5.2505361328125,2.197205066680908,-1.5736174583435059,2.496342182159424
1707576810202428700,5.2694287109375,1.5515613555908203,-0.8398418426513672,0.9780515432357788
1707576810221321200,5.2883212890625,3.658418655395508,-1.5585894584655762,1.1428351402282715
1707576810240213800,5.3072138671875,6.265043258666992,-1.6567349433898926,0.5286527872085571
1707576810259106300,5.326106201171875,6.162655830383301,-1.9027915000915527,0.2983962595462799
1707576810277998600,5.34499853515625,5.63121223449707,-0.5568399429321289,-0.8239477872848511
1707576810296891400,5.363891357421875,5.803361892700195,0.1302340030670166,-1.806937575340271
1707576810315784000,5.382783935546875,5.475869178771973,-0.6593177318572998,-1.077402114868164
1707576810334676500,5.401676513671875,4.8591203689575195,0.3282351493835449,-0.9819539189338684
1707576810353569000,5.420569091796875,5.164663314819336,-0.5535030364990234,-0.7787467837333679
1707576810372461600,5.439461669921875,4.772743225097656,0.8059864044189453,-2.317768096923828
1707576810391354000,5.45835400390625,2.5361995697021484,-2.251648426055908,-0.945746898651123
1707576810410246700,5.47724658203125,0.7134685516357422,-0.5101501941680908,-2.324573278427124
1707576810429139200,5.49613916015625,0.20606327056884766,-0.22680950164794922,-1.5452696084976196
1707576810448031700,5.51503173828125,-0.28305816650390625,-0.7144339084625244,-0.2846193015575409
1707576810466924300,5.53392431640625,-2.021871566772461,-0.3412208557128906,1.0394198894500732
1707576810485816800,5.55281689453125,-2.640669822692871,0.0014362335205078125,2.046968460083008
1707576810504709400,5.57170947265625,-3.205801010131836,0.5183229446411133,2.1602272987365723
1707576810523602000,5.590601806640625,-2.6563234329223633,0.7000131607055664,1.544450283050537
1707576810542494500,5.609494384765625,-1.8105754852294922,-0.24431228637695312,-0.07026344537734985
1707576810561387000,5.628386962890625,-0.6991672515869141,-0.10146474838256836,-0.05719989538192749
1707576810580279600,5.647279541015625,0.5853443145751953,0.3503084182739258,0.18296116590499878
1707576810599172000,5.666172119140625,1.705367088317871,0.4807307720184326,-0.3007509708404541
1707576810618064600,5.685064697265625,1.8664016723632812,0.46349191665649414,-0.6774911880493164
1707576810636957200,5.703957275390625,1.451584815979004,0.27040839195251465,-0.4865420460700989
1707576810655849700,5.722849609375,1.476527214050293,0.02020716667175293,-0.6440750956535339
1707576810674742300,5.7417421875,1.0893068313598633,-0.5833415985107422,-0.28549161553382874
1707576810693634800,5.760634765625,0.7970066070556641,-0.12426447868347168,-0.3522671163082123
1707576810712527400,5.77952734375,1.0136137008666992,0.29706573486328125,-0.07084918022155762
1707576810731420000,5.798419921875,0.1911306381225586,0.18964481353759766,0.6429591774940491
1707576810750312400,5.8173125,-0.8336896896362305,-0.06948256492614746,0.9441503286361694
1707576810769205000,5.836205078125,-0.24329185485839844,0.19554805755615234,0.7372252941131592
1707576810788097500,5.85509765625,-0.6207027435302734,0.22475624084472656,0.2744121551513672
1707576810806990000,5.873989990234375,-0.6220932006835938,0.08815789222717285,0.1512450873851776
1707576810825882600,5.892882568359375,-0.1975688934326172,0.07309269905090332,0.10916656255722046
1707576810844775200,5.911775146484375,-0.6082754135131836,-0.11082577705383301,-0.06093934178352356
1707576810863667700,5.930667724609375,-0.3052492141723633,-0.03555798530578613,-0.2569041848182678
1707576810882560300,5.949560302734375,-0.17373180389404297,0.09063029289245605,-0.709221601486206
1707576810901452800,5.968452880859375,0.060189247131347656,0.31647419929504395,-1.3412203788757324
1707576810920345300,5.987345458984375,0.6883783340454102,0.33120179176330566,-1.7009556293487549
1707576810939238000,6.00623779296875,0.5963277816772461,0.049211978912353516,-1.3031567335128784
1707576810958130400,6.02513037109375,0.024776458740234375,-0.26985788345336914,0.06457263231277466
1707576810977023000,6.04402294921875,-0.38907814025878906,-0.5981104373931885,0.9316303133964539
1707576810995915500,6.06291552734375,0.49974536895751953,-0.7423970699310303,0.635844349861145
1707576811014808000,6.08180810546875,1.4894647598266602,-0.4377138614654541,0.533864438533783
1707576811033700600,6.10070068359375,1.965078353881836,-0.12664031982421875,0.35721224546432495
1707576811052593200,6.11959326171875,2.030470848083496,-0.0035657882690429688,0.2864922881126404
1707576811071485700,6.138485595703125,1.4773797988891602,-0.017380237579345703,0.8679434657096863
1707576811090378200,6.157378173828125,0.5775632858276367,-0.2316579818725586,1.1420719623565674
1707576811109270800,6.176270751953125,0.010367393493652344,-0.27501845359802246,0.9648680686950684
1707576811128163300,6.195163330078125,-0.052158355712890625,0.23882436752319336,-0.018907323479652405
1707576811147056000,6.21405615234375,-0.40250587463378906,-0.0036809444427490234,-0.31913307309150696
1707576811165948400,6.232948486328125,-0.5357503890991211,0.2182931900024414,-0.15204885601997375
1707576811184841000,6.251841064453125,-0.4935722351074219,0.15999579429626465,-0.42333975434303284
1707576811203733500,6.2707333984375,-0.3816347122192383,0.240128755569458,-0.543304443359375
1707576811222626000,6.2896259765625,-0.06962013244628906,0.2775416374206543,-0.39768287539482117
1707576811241518600,6.3085185546875,-0.029480934143066406,-0.07486200332641602,-0.0619274377822876
1707576811260411100,6.3274111328125,0.060271263122558594,-0.042493343353271484,0.44727739691734314
1707576811279304000,6.346303955078125,0.21483707427978516,-0.1192479133605957,0.2439160943031311
1707576811298196200,6.3651962890625,0.3110990524291992,-0.17946243286132812,0.040236711502075195
1707576811317089000,6.384089111328125,0.3624601364135742,-0.2313845157623291,0.2905556559562683
1707576811335981300,6.402981201171875,0.28256702423095703,-0.0978853702545166,0.31949302554130554
1707576811354874000,6.4218740234375,-0.0735626220703125,0.00939035415649414,0.03629240393638611
1707576811373766400,6.440766357421875,-0.2888631820678711,-0.021051645278930664,-0.030081957578659058
1707576811392659000,6.459658935546875,-0.21685791015625,-0.025962114334106445,-0.13667413592338562
1707576811411551700,6.4785517578125,0.18250274658203125,-0.03921651840209961,-0.13938772678375244
1707576811430444000,6.497444091796875,0.3034086227416992,0.03092646598815918,0.12216100096702576
1707576811449336800,6.5163369140625,0.07578372955322266,0.03986716270446777,0.05142650008201599
1707576811468229000,6.53522900390625,0.0697774887084961,0.00956106185913086,0.13578805327415466
1707576811487122000,6.554121826171875,0.10434532165527344,-0.05544233322143555,0.11401361227035522
1707576811506014500,6.573014404296875,0.08287620544433594,0.007784366607666016,0.15157297253608704
