time,seconds_elapsed,z,y,x
1707603268573642000,0.03564208984375,0,0,0
1707603268592535600,0.05453564453125,0.07434368133544922,0.11046171188354492,-0.07704222202301025
1707603268611429000,0.07342919921875,0.43019819259643555,0.4412226676940918,-0.2726724147796631
1707603268630322700,0.09232275390625,0.8555765151977539,0.49273014068603516,-0.8339170217514038
1707603268649216300,0.11121630859375,0.941352367401123,0.2299208641052246,-1.0674937963485718
1707603268668109800,0.13010986328125,0.4891672134399414,-0.051299095153808594,-0.41979122161865234
1707603268687003400,0.14900341796875,0.3584117889404297,0.06866168975830078,0.018730759620666504
1707603268705897000,0.16789697265625,0.35924673080444336,-0.16088104248046875,0.06554853916168213
1707603268724790500,0.18679052734375,0.2648320198059082,-0.7037363052368164,0.49418365955352783
1707603268743684000,0.20568408203125,-2.0518150329589844,-1.2635326385498047,2.296887159347534
1707603268762577700,0.22457763671875,-1.5297398567199707,-2.5570740699768066,0.26581108570098877
1707603268781471200,0.24347119140625,-0.0092010498046875,-1.8760042190551758,0.4391336441040039
1707603268800364800,0.26236474609375,1.9643430709838867,-1.6361665725708008,-0.3207991123199463
1707603268819258400,0.28125830078125,1.7917380332946777,-1.057271957397461,0.05641639232635498
1707603268838152000,0.30015185546875,-1.1396832466125488,-1.5268654823303223,3.1481270790100098
1707603268857045500,0.31904541015625,-2.49587345123291,-1.104383945465088,1.0640733242034912
1707603268875939000,0.33793896484375,-3.324108123779297,-0.6004023551940918,0.1895841360092163
1707603268894832600,0.35683251953125,-1.6227941513061523,0.9289803504943848,-0.38298988342285156
1707603268913726200,0.375726318359375,0.4484081268310547,1.5203619003295898,-1.4286938905715942
1707603268932619800,0.394619873046875,0.6233386993408203,0.7545275688171387,-0.7143052816390991
1707603268951513300,0.413513427734375,0.9634933471679688,-0.3289828300476074,-0.8664107322692871
1707603268970407000,0.432406982421875,1.0634527206420898,-0.17676019668579102,-0.1575230360031128
1707603268989300500,0.451300537109375,2.1217050552368164,-0.41576194763183594,0.29398632049560547
1707603269008194000,0.470194091796875,1.6468167304992676,-0.8756313323974609,0.38176393508911133
1707603269027087600,0.489087646484375,0.4915285110473633,-1.1106853485107422,0.054814815521240234
1707603269045981200,0.507981201171875,-0.6604752540588379,-0.6221270561218262,0.2105247974395752
1707603269064874800,0.526874755859375,-0.5378975868225098,0.1334514617919922,-0.5507352352142334
1707603269083768300,0.545768310546875,-1.8384594917297363,1.336472511291504,-1.3894717693328857
1707603269102662000,0.564661865234375,-2.6973538398742676,1.5471978187561035,-0.6047999858856201
1707603269121555200,0.58355517578125,-3.2187745571136475,0.8720979690551758,0.8600108623504639
1707603269140449000,0.602448974609375,-2.104720115661621,0.5852470397949219,0.7722647190093994
1707603269159342600,0.621342529296875,-0.9014503955841064,0.15856504440307617,0.304534912109375
1707603269178236200,0.640236083984375,0.5331344604492188,-0.07811355590820312,0.34641170501708984
1707603269197129500,0.65912939453125,1.3460755348205566,-0.06183910369873047,0.4158344268798828
1707603269216023000,0.67802294921875,0.7298688888549805,-0.0037832260131835938,0.30820512771606445
1707603269234916600,0.69691650390625,-0.051764488220214844,0.21822214126586914,0.43979525566101074
1707603269253810400,0.715810546875,-0.020397663116455078,0.6600360870361328,1.2289881706237793
1707603269272703700,0.734703857421875,0.851841926574707,0.37047672271728516,0.5953633785247803
1707603269291597300,0.753597412109375,1.374631404876709,-0.13381338119506836,-0.32460713386535645
1707603269310491000,0.772490966796875,1.6475238800048828,-0.5721416473388672,-0.491485595703125
1707603269329384400,0.791384521484375,1.4845213890075684,-0.6894044876098633,-0.23990964889526367
1707603269348278000,0.810278076171875,0.9087233543395996,-0.8730721473693848,-0.5296616554260254
1707603269367171600,0.829171630859375,1.3078012466430664,-0.3872342109680176,-1.3516204357147217
1707603269386065200,0.848065185546875,1.5719666481018066,-0.7896265983581543,-1.3726986646652222
1707603269404958700,0.866958740234375,0.9975218772888184,-0.8713798522949219,-0.8844184875488281
1707603269423852300,0.885852294921875,1.500999927520752,-0.5973062515258789,-0.8557446002960205
1707603269442745900,0.904745849609375,2.0847558975219727,-1.388671875,-1.5609393119812012
1707603269461639400,0.923639404296875,1.8046956062316895,-2.5584630966186523,-2.4997236728668213
1707603269480533000,0.942532958984375,1.0793190002441406,-3.7446818351745605,-3.3248186111450195
1707603269499426600,0.961426513671875,0.7485013008117676,-4.031855583190918,-3.3322994709014893
1707603269518320000,0.980320068359375,0.6967363357543945,-3.709418773651123,-2.6837754249572754
1707603269537213700,0.999213623046875,0.5975403785705566,-3.4168500900268555,0.027803897857666016
1707603269556107300,1.018107177734375,1.328857421875,-1.7618131637573242,1.389664649963379
1707603269575000800,1.037000732421875,2.5484085083007812,0.11902046203613281,2.1209468841552734
1707603269593894400,1.055894287109375,2.566378116607666,2.604279041290283,2.7747254371643066
1707603269612788000,1.0747880859375,-0.8839397430419922,3.994779109954834,0.9543642997741699
1707603269631681500,1.093681640625,-5.74479866027832,5.791142463684082,-0.10177803039550781
1707603269650575000,1.1125751953125,-7.304279804229736,7.554688930511475,-0.714665412902832
1707603269669468700,1.13146875,-6.2541584968566895,7.8074631690979,0.8099150657653809
1707603269688362200,1.1503623046875,-4.665277481079102,6.391491889953613,2.9129128456115723
1707603269707255800,1.169255859375,-3.446010112762451,2.7120118141174316,3.2826638221740723
1707603269726149400,1.1881494140625,-2.5216064453125,-1.3046760559082031,2.28884220123291
1707603269745042700,1.207042724609375,-1.6589668989181519,-3.366638660430908,2.0085978507995605
1707603269763936300,1.225936279296875,-1.3787527084350586,-5.397973537445068,2.9187889099121094
1707603269782830000,1.244830078125,0.10789084434509277,-4.952719211578369,4.668923854827881
1707603269801723600,1.2637236328125,2.169929027557373,-5.0381598472595215,6.677647590637207
1707603269820617000,1.282616943359375,2.2099575996398926,-5.942758083343506,5.533374309539795
1707603269839510500,1.301510498046875,1.2212402820587158,-5.997021675109863,3.8416714668273926
1707603269858404000,1.320404052734375,-0.0028241872787475586,-6.480279445648193,1.3500351905822754
1707603269877297700,1.339297607421875,-0.16561147570610046,-5.945878028869629,-1.2763457298278809
1707603269896191200,1.358191162109375,-0.3720107972621918,-5.105764389038086,-3.6176600456237793
1707603269915084800,1.377084716796875,-0.5728631019592285,-4.20540189743042,-4.3930840492248535
1707603269933978400,1.395978271484375,-0.3935747742652893,-1.9937076568603516,-3.8220553398132324
1707603269952872000,1.414871826171875,0.4415505826473236,1.3618545532226562,-3.630725860595703
1707603269971765500,1.433765625,-0.2540087401866913,4.159875869750977,-3.0980753898620605
1707603269990659000,1.4526591796875,-2.1647682189941406,6.88558292388916,-3.4594931602478027
1707603270009552600,1.471552734375,-2.5418100357055664,10.825525283813477,-2.9968643188476562
1707603270028446200,1.4904462890625,-2.930222749710083,11.491943359375,-0.057559967041015625
1707603270047339800,1.50933984375,-3.0667004585266113,10.089315414428711,1.3084478378295898
1707603270066233300,1.5282333984375,-3.051280975341797,6.490244388580322,1.512948989868164
1707603270085127000,1.547126953125,-2.713096857070923,3.023514747619629,3.509080410003662
1707603270104020500,1.5660205078125,-2.1367852687835693,-0.5742340087890625,5.43353271484375
1707603270122914000,1.5849140625,-0.18939167261123657,-3.4480466842651367,7.536239147186279
1707603270141807600,1.6038076171875,0.9375702142715454,-4.327990531921387,10.071144104003906
1707603270160701200,1.622701171875,-0.849387526512146,-5.128893852233887,9.112447738647461
1707603270179594800,1.6415947265625,-2.670850992202759,-6.086018085479736,4.527566909790039
1707603270198488300,1.66048828125,-2.0761098861694336,-6.191928386688232,3.1701927185058594
1707603270217382000,1.6793818359375,0.27143990993499756,-6.451197624206543,0.7349910736083984
1707603270236275200,1.698275146484375,2.8403568267822266,-7.737799644470215,-2.996485471725464
1707603270255168800,1.717168701171875,4.534783363342285,-8.356632232666016,-6.164966583251953
1707603270274062300,1.736062255859375,5.238798141479492,-7.088715553283691,-7.8305768966674805
1707603270292956200,1.7549560546875,3.2238898277282715,-5.447474002838135,-7.974482536315918
1707603270311849500,1.773849365234375,-0.494941771030426,-3.2290754318237305,-8.638908386230469
1707603270330743000,1.792742919921875,-2.0977206230163574,-0.1291027069091797,-7.78695821762085
1707603270349636600,1.81163671875,-2.156541585922241,3.412872314453125,-6.722716331481934
1707603270368530200,1.8305302734375,-1.1041511297225952,6.377412796020508,-2.811103343963623
1707603270387423700,1.849423828125,-2.1492888927459717,9.90679931640625,2.9651737213134766
1707603270406317300,1.8683173828125,-3.809499979019165,11.558441162109375,7.570705413818359
1707603270425211000,1.8872109375,-4.745650291442871,9.957276344299316,9.935651779174805
1707603270444104400,1.9061044921875,-4.36250638961792,6.05403470993042,12.738536834716797
1707603270462998000,1.924998046875,-4.062273979187012,3.5291967391967773,16.113056182861328
1707603270481891600,1.9438916015625,-4.121230125427246,-0.7763023376464844,18.01606559753418
1707603270500785200,1.96278515625,-4.200406074523926,-5.9858856201171875,14.035863876342773
1707603270519678700,1.9816787109375,-3.121706008911133,-9.227033615112305,4.228543758392334
1707603270538572300,2.000572265625,-1.1261850595474243,-10.197269439697266,-1.2816352844238281
1707603270557465900,2.0194658203125,1.5120809078216553,-10.42798137664795,-4.892942905426025
1707603270576359400,2.038359375,4.623541355133057,-10.595096588134766,-7.128784656524658
1707603270595253000,2.0572529296875,6.2475409507751465,-10.126605987548828,-5.618600368499756
1707603270614146600,2.076146484375,5.45683479309082,-8.11120891571045,-5.087448596954346
1707603270633040100,2.0950400390625,3.7075109481811523,-5.127274513244629,-7.360694408416748
1707603270651933400,2.113933349609375,0.188534677028656,-4.419353008270264,-7.806312561035156
1707603270670827000,2.132826904296875,-1.6373143196105957,-1.8729791641235352,-8.27226734161377
1707603270689720600,2.151720458984375,-0.30328071117401123,0.08777999877929688,-7.193122863769531
1707603270708614100,2.1706142578125,2.264219045639038,3.343613624572754,-5.384308815002441
1707603270727507700,2.1895078125,2.6244049072265625,5.527691841125488,-2.545173168182373
1707603270746401300,2.2084013671875,0.1002204418182373,8.061004638671875,0.2427225112915039
1707603270765294800,2.227294921875,-2.4046671390533447,8.639667510986328,2.7980966567993164
1707603270784188400,2.2461884765625,-4.404952049255371,8.075925827026367,6.0651373863220215
1707603270803082000,2.26508203125,-4.919012546539307,5.447939872741699,7.6487884521484375
1707603270821975600,2.2839755859375,-4.1832804679870605,2.365523338317871,8.819940567016602
1707603270840869000,2.302869140625,-3.6126606464385986,-0.10020160675048828,8.0645170211792
1707603270859762700,2.3217626953125,-3.2214999198913574,-1.838411808013916,5.066203594207764
1707603270878656300,2.34065625,-2.1665515899658203,-4.574470520019531,2.8092386722564697
1707603270897549800,2.3595498046875,-0.9294569492340088,-6.487667083740234,3.019153356552124
1707603270916443400,2.378443359375,0.26691770553588867,-7.209007263183594,2.2212324142456055
1707603270935337000,2.3973369140625,1.0621073246002197,-7.539481163024902,0.22298479080200195
1707603270954230500,2.41623046875,4.271746635437012,-7.1069512367248535,-3.83940052986145
1707603270973123800,2.435123779296875,6.597426891326904,-5.05005407333374,-4.722097396850586
1707603270992017400,2.454017333984375,3.861300468444824,-4.811215400695801,-1.9526572227478027
1707603271010911000,2.472910888671875,2.4605915546417236,-3.271047592163086,-0.23070526123046875
1707603271029804800,2.4918046875,0.6330630779266357,0.012960433959960938,-2.0158748626708984
1707603271048698000,2.510697998046875,0.12050771713256836,4.471128463745117,-1.3288993835449219
1707603271067591700,2.529591796875,-2.3110265731811523,9.180795669555664,0.43933534622192383
1707603271086485200,2.5484853515625,-5.3373894691467285,14.024392127990723,2.0643978118896484
1707603271105378800,2.56737890625,-7.162014961242676,14.727103233337402,2.1905994415283203
1707603271124272400,2.5862724609375,-6.414525985717773,11.428351402282715,3.419264554977417
1707603271143166000,2.605166015625,-3.8001534938812256,6.818856239318848,3.527801990509033
1707603271162059500,2.6240595703125,-2.1293814182281494,1.3343696594238281,3.959916830062866
1707603271180953000,2.642953125,0.7108560800552368,-4.290088176727295,3.251634120941162
1707603271199846700,2.6618466796875,2.8604543209075928,-7.588605880737305,1.6074447631835938
1707603271218740200,2.680740234375,3.4953579902648926,-10.367250442504883,0.2765011787414551
1707603271237633800,2.6996337890625,3.0008134841918945,-11.961587905883789,-0.4046316146850586
1707603271256527400,2.71852734375,2.343756675720215,-13.409221649169922,-1.8705530166625977
1707603271275421000,2.7374208984375,1.5757125616073608,-14.480546951293945,-3.2866063117980957
1707603271294314500,2.756314453125,1.3231163024902344,-13.988414764404297,-4.599608898162842
1707603271313207800,2.775207763671875,0.6554297208786011,-12.109621047973633,-4.947041034698486
1707603271332101400,2.794101318359375,-1.4681148529052734,-8.668347358703613,-4.445396423339844
1707603271350995000,2.812994873046875,-3.408963680267334,-3.8559062480926514,-2.497838020324707
1707603271369888500,2.831888427734375,-5.000894546508789,3.227961540222168,-0.555182933807373
1707603271388782000,2.850781982421875,-6.9725446701049805,10.37042236328125,1.1213645935058594
1707603271407675600,2.869675537109375,-8.222844123840332,15.520822525024414,2.2887048721313477
1707603271426569200,2.8885693359375,-8.342011451721191,18.063800811767578,1.9412636756896973
1707603271445462800,2.907462890625,-6.541446208953857,16.949050903320312,2.798301935195923
1707603271464356400,2.9263564453125,-3.880981922149658,13.163602828979492,5.040578365325928
1707603271483250000,2.94525,-0.5762590169906616,7.374962329864502,7.036333084106445
1707603271502143500,2.9641435546875,1.1941158771514893,1.8997883796691895,6.927147388458252
1707603271521037000,2.983037109375,1.5470911264419556,-2.177616596221924,5.067957878112793
1707603271539930600,3.0019306640625,0.6737859845161438,-5.016796112060547,1.8587522506713867
1707603271558871000,3.02087109375,-0.3987596035003662,-8.773555755615234,-1.2509379386901855
1707603271577717500,3.039717529296875,-1.1615879535675049,-12.699638366699219,-4.156177043914795
1707603271596611000,3.058611083984375,-0.506676971912384,-14.506176948547363,-6.306018352508545
1707603271615504600,3.077504638671875,1.3572049140930176,-15.685203552246094,-5.231884956359863
1707603271634398200,3.096398193359375,3.42765212059021,-15.526408195495605,-2.7858238220214844
1707603271653291800,3.115291748046875,4.329118728637695,-13.933034896850586,-1.0395069122314453
1707603271672185300,3.134185302734375,1.8583691120147705,-10.239728927612305,-1.1726570129394531
1707603271691079000,3.153078857421875,-2.3472237586975098,-6.462320804595947,-2.266300678253174
1707603271709972500,3.171972412109375,-5.044945240020752,-0.5024056434631348,-3.007598400115967
1707603271728866000,3.190865966796875,-7.70414924621582,7.672728061676025,-3.2871041297912598
1707603271747759600,3.209759521484375,-11.720947265625,14.626530647277832,-0.07093667984008789
1707603271766653200,3.228653076171875,-13.370196342468262,18.330947875976562,5.053759574890137
1707603271785546500,3.24754638671875,-10.199825286865234,18.348461151123047,7.840539932250977
1707603271804440000,3.266440185546875,-5.779820442199707,14.171161651611328,7.975498676300049
1707603271823333600,3.285333740234375,-0.8700085878372192,7.642873287200928,7.3076982498168945
1707603271842227200,3.304227294921875,2.435861349105835,2.490626811981201,4.758154392242432
1707603271861120800,3.323120849609375,2.447781562805176,-2.6547741889953613,2.7517452239990234
1707603271880014300,3.342014404296875,2.4719090461730957,-6.722327709197998,1.1274404525756836
1707603271898908000,3.360907958984375,3.215628147125244,-9.494521141052246,0.3015751838684082
1707603271917801500,3.379801513671875,3.169102430343628,-11.547866821289062,-0.5238614082336426
1707603271936695000,3.398695068359375,2.4792895317077637,-13.258658409118652,-2.0533761978149414
1707603271955588600,3.417588623046875,2.3206982612609863,-14.629168510437012,-4.441165924072266
1707603271974482200,3.436482177734375,2.150876045227051,-14.540146827697754,-6.970952033996582
1707603271993375700,3.455375732421875,1.5125672817230225,-13.134065628051758,-5.909848690032959
1707603272012269300,3.474269287109375,0.38638854026794434,-10.613822937011719,-2.464646816253662
1707603272031163000,3.493162841796875,-0.7661552429199219,-5.806272029876709,-0.7666440010070801
1707603272050056200,3.51205615234375,-2.580470561981201,-0.7638683319091797,-0.6960978507995605
1707603272068949800,3.53094970703125,-4.741076946258545,5.534132480621338,0.07541704177856445
1707603272087843300,3.54984326171875,-7.409399032592773,10.797161102294922,2.3667516708374023
1707603272106737000,3.56873681640625,-8.84972858428955,14.174535751342773,4.873873233795166
1707603272125630500,3.58763037109375,-9.167171478271484,15.369691848754883,6.311175346374512
1707603272144524000,3.60652392578125,-8.289571762084961,14.259140014648438,6.295042991638184
1707603272163417600,3.62541748046875,-6.946936130523682,11.031752586364746,4.9958624839782715
1707603272182311200,3.644311279296875,-5.532687187194824,6.727886199951172,2.6042890548706055
1707603272201204700,3.663204833984375,-4.016751766204834,2.3409290313720703,-0.04619026184082031
1707603272220098300,3.682098388671875,-2.4770500659942627,-1.1558332443237305,-2.484328508377075
1707603272238992000,3.700991943359375,-1.2008627653121948,-4.650367736816406,-5.538978576660156
1707603272257885400,3.719885498046875,0.1563246250152588,-8.663029670715332,-5.722513198852539
1707603272276779000,3.738779052734375,2.8012855052948,-10.889842987060547,-4.870773792266846
1707603272295672600,3.757672607421875,4.756426811218262,-11.005293846130371,-5.953934192657471
1707603272314566000,3.77656591796875,4.787442684173584,-9.361781120300293,-7.391293525695801
1707603272333459500,3.79545947265625,3.8144493103027344,-7.379859447479248,-8.543912887573242
1707603272352353000,3.81435302734375,2.5826661586761475,-5.7279486656188965,-9.816095352172852
1707603272371246600,3.83324658203125,2.662071943283081,-4.377253532409668,-7.736689567565918
1707603272390140200,3.85214013671875,2.4632468223571777,-2.422701835632324,-3.8360202312469482
1707603272409033700,3.87103369140625,1.4229997396469116,-0.566533088684082,0.48600077629089355
1707603272427927300,3.88992724609375,0.11341285705566406,1.1821413040161133,-1.234311580657959
1707603272446820900,3.90882080078125,-0.4443683326244354,2.005044937133789,-0.03902482986450195
1707603272465714400,3.92771435546875,-1.259583830833435,3.416388511657715,1.951277732849121
1707603272484608000,3.94660791015625,-1.4005882740020752,4.953324317932129,5.558452606201172
1707603272503501600,3.96550146484375,-2.4124596118927,5.064263343811035,11.136453628540039
1707603272522395100,3.98439501953125,-3.4502954483032227,5.066462516784668,16.782421112060547
1707603272541288700,4.003288818359375,-4.372434139251709,5.008588790893555,17.520069122314453
1707603272560182300,4.022182373046875,-5.5738396644592285,3.4981307983398438,13.783803939819336
1707603272579075600,4.04107568359375,-5.622084617614746,0.7301359176635742,8.613718032836914
1707603272597969200,4.05996923828125,-2.7235233783721924,-3.814295768737793,-0.06715965270996094
1707603272616862700,4.07886279296875,2.3054306507110596,-6.546816825866699,-8.596404075622559
1707603272635756300,4.09775634765625,6.281831741333008,-8.531462669372559,-9.541988372802734
1707603272654649900,4.11664990234375,7.9602155685424805,-10.468289375305176,-6.8003435134887695
1707603272673543400,4.13554345703125,7.33371639251709,-11.592338562011719,-5.877283096313477
1707603272692437000,4.15443701171875,4.8334527015686035,-11.451324462890625,-7.826719284057617
1707603272711330600,4.17333056640625,2.501176118850708,-9.905265808105469,-8.236222267150879
1707603272730224000,4.19222412109375,1.8072913885116577,-4.652726173400879,-4.5065412521362305
1707603272749117700,4.21111767578125,-0.6093202829360962,0.6615695953369141,-0.848829984664917
1707603272768011300,4.23001123046875,-2.9125404357910156,5.618059158325195,2.3200459480285645
1707603272786904800,4.24890478515625,-4.861645698547363,9.962491989135742,5.193022727966309
1707603272805798400,4.26779833984375,-7.164222717285156,13.820488929748535,8.049909591674805
1707603272824692000,4.28669189453125,-9.158180236816406,12.786659240722656,7.974844932556152
1707603272843585300,4.305585205078125,-9.92867660522461,8.479276657104492,5.728282451629639
1707603272862478800,4.324478759765625,-9.282456398010254,4.114768981933594,3.546661853790283
1707603272881372400,4.343372314453125,-7.562468528747559,0.881342887878418,1.1892788410186768
1707603272900266000,4.362265869140625,-4.985417366027832,-2.131680488586426,-2.145081043243408
1707603272919159600,4.38115966796875,-1.420689344406128,-5.031728744506836,-5.190247535705566
1707603272938053000,4.40005322265625,3.8661880493164062,-8.579850196838379,-5.753276824951172
1707603272956946700,4.41894677734375,9.235213279724121,-10.664125442504883,-6.379804611206055
1707603272975840300,4.43784033203125,9.451807022094727,-11.721314430236816,-7.107025146484375
1707603272994733800,4.45673388671875,2.823359489440918,-12.163634300231934,-8.857355117797852
1707603273013627400,4.47562744140625,-2.08998441696167,-9.246979713439941,-8.130436897277832
1707603273032521000,4.49452099609375,-0.5855560302734375,-6.192328929901123,-5.403440952301025
1707603273051414500,4.51341455078125,1.1217658519744873,-2.0308547019958496,-0.5180320739746094
1707603273070308000,4.53230810546875,1.0456942319869995,0.44734859466552734,1.0440621376037598
1707603273089201700,4.55120166015625,2.009187698364258,2.6465821266174316,2.194243907928467
1707603273108095000,4.570094970703125,3.944631814956665,4.686214447021484,6.668327331542969
1707603273126988500,4.588988525390625,4.584880828857422,5.261363983154297,12.759676933288574
1707603273145882000,4.607882080078125,2.129542350769043,5.437163352966309,15.200703620910645
1707603273164775700,4.626775634765625,-1.214644193649292,4.963001251220703,14.550589561462402
1707603273183669200,4.645669189453125,-3.2185251712799072,2.41591215133667,12.681821823120117
1707603273202562800,4.664562744140625,-2.9685797691345215,-1.1105561256408691,10.089456558227539
1707603273221456400,4.683456298828125,-1.676321029663086,-3.2014570236206055,7.056041717529297
1707603273240350000,4.702349853515625,-1.748607873916626,-4.680148124694824,4.630260944366455
1707603273259243500,4.721243408203125,-2.464318037033081,-6.1730546951293945,2.7551894187927246
1707603273278137000,4.74013720703125,-1.0273759365081787,-8.06598949432373,-0.6013121604919434
1707603273297030700,4.75903076171875,1.5810489654541016,-9.02242660522461,-6.4948201179504395
1707603273315924200,4.77792431640625,2.128452777862549,-8.651642799377441,-10.679693222045898
1707603273334817800,4.79681787109375,2.1610939502716064,-8.33675765991211,-12.162712097167969
1707603273353711000,4.815711181640625,0.7795562744140625,-7.682424545288086,-11.505239486694336
1707603273372604700,4.834604736328125,0.07856881618499756,-6.415563106536865,-8.962178230285645
1707603273391498200,4.853498291015625,1.030468225479126,-4.170098781585693,-7.647872447967529
1707603273410391800,4.872391845703125,3.336618423461914,-0.5720148086547852,-5.436502933502197
1707603273429285400,4.891285400390625,2.5226659774780273,4.856419086456299,-0.3323502540588379
1707603273448179000,4.910178955078125,0.26691317558288574,9.311517715454102,6.126052379608154
1707603273467072500,4.929072509765625,-0.9272031784057617,9.089250564575195,9.971212387084961
1707603273485966000,4.947966064453125,1.3892333507537842,7.073508262634277,11.346597671508789
1707603273504859600,4.966859619140625,1.4087810516357422,4.840078830718994,12.237424850463867
1707603273523753200,4.985753173828125,0.1781611442565918,2.1945090293884277,11.727011680603027
1707603273542646800,5.004646728515625,-2.270113468170166,0.49198436737060547,10.576218605041504
1707603273561540400,5.023540283203125,-3.3721413612365723,-1.907444953918457,9.680719375610352
1707603273580434000,5.042433837890625,-2.6094675064086914,-5.2393927574157715,8.276025772094727
1707603273599327500,5.061327392578125,-1.4632625579833984,-7.287341117858887,5.980854034423828
1707603273618220800,5.080220703125,0.13381671905517578,-7.964500904083252,2.660158634185791
1707603273637114600,5.099114501953125,1.3625073432922363,-8.729519844055176,-1.0702271461486816
1707603273656008200,5.11800830078125,2.1686694622039795,-8.693345069885254,-3.889500379562378
1707603273674901800,5.13690185546875,2.3837084770202637,-8.67220401763916,-6.669819355010986
1707603273693795000,5.155795166015625,2.132310390472412,-8.816943168640137,-7.245449542999268
1707603273712688600,5.174688720703125,1.8150138854980469,-7.68679666519165,-6.177642822265625
1707603273731582200,5.193582275390625,1.7719963788986206,-4.281651973724365,-5.067422866821289
1707603273750475800,5.212475830078125,0.9575799703598022,1.9216794967651367,-3.127957820892334
1707603273769369300,5.231369384765625,-0.44056713581085205,6.0970306396484375,-0.9597463607788086
1707603273788263000,5.250262939453125,-0.515174150466919,8.301469802856445,0.2780647277832031
1707603273807156500,5.269156494140625,-0.795756995677948,9.554276466369629,1.3592090606689453
1707603273826050000,5.288050048828125,-0.8890044689178467,7.92403507232666,3.179523468017578
1707603273844943600,5.306943603515625,-2.5913138389587402,5.828679084777832,4.8703155517578125
1707603273863837200,5.325837158203125,-5.243766784667969,3.984434127807617,4.508055686950684
1707603273882730800,5.344730712890625,-5.228410243988037,1.835923194885254,3.822892189025879
1707603273901624300,5.363624267578125,-4.132978439331055,0.496307373046875,1.6515555381774902
1707603273920518000,5.382517822265625,-1.4816744327545166,-1.136220932006836,1.1756467819213867
1707603273939411500,5.401411376953125,0.31872987747192383,-3.997145175933838,-0.13180702924728394
1707603273958304800,5.4203046875,1.676090955734253,-6.1324286460876465,-0.8281671404838562
1707603273977198300,5.4391982421875,2.4014453887939453,-8.411978721618652,-0.5395933389663696
1707603273996092000,5.458091796875,2.475189685821533,-9.369380950927734,-0.645289421081543
1707603274014985500,5.4769853515625,1.7076005935668945,-8.584028244018555,-2.275519371032715
1707603274033879000,5.495879150390625,0.9659007787704468,-6.32014274597168,-2.687464952468872
1707603274052772600,5.514772705078125,1.1728960275650024,-3.3375940322875977,-1.9111660718917847
1707603274071666200,5.533666259765625,0.49141743779182434,0.07944488525390625,-0.7758132815361023
1707603274090559700,5.552559814453125,-0.252827525138855,4.913454055786133,0.3920036554336548
1707603274109453300,5.571453369140625,-1.605381727218628,9.134162902832031,2.426713466644287
1707603274128347000,5.590346923828125,-3.7362165451049805,11.745421409606934,3.9958724975585938
1707603274147240400,5.609240478515625,-5.405892848968506,11.849749565124512,5.503886699676514
1707603274166134000,5.628134033203125,-7.15420389175415,8.25151252746582,5.099283218383789
1707603274185027600,5.647027587890625,-7.22508430480957,4.3905229568481445,4.27283239364624
1707603274203921000,5.6659208984375,-5.961672782897949,0.36202335357666016,2.6247456073760986
1707603274222814500,5.684814453125,-3.5774965286254883,-3.818942070007324,0.4131547212600708
1707603274241708000,5.7037080078125,1.366424560546875,-5.1381635665893555,-2.0661728382110596
1707603274260601600,5.7226015625,3.3192877769470215,-6.5213541984558105,-3.4535388946533203
1707603274279495200,5.7414951171875,3.0577943325042725,-8.402007102966309,-3.6031594276428223
1707603274298388700,5.760388671875,1.9674358367919922,-9.874225616455078,-3.4312500953674316
1707603274317282300,5.7792822265625,1.9660556316375732,-10.046863555908203,-3.1332478523254395
1707603274336175900,5.79817578125,2.611513614654541,-10.020198822021484,-2.2126331329345703
1707603274355069400,5.8170693359375,3.3539724349975586,-9.147420883178711,-1.513251543045044
1707603274373963000,5.835962890625,3.90389347076416,-6.8432230949401855,-1.2248938083648682
1707603274392856600,5.854856689453125,3.4441285133361816,-3.9628515243530273,-1.8047205209732056
1707603274411750100,5.873750244140625,2.4815194606781006,-0.9783687591552734,-0.7623707056045532
1707603274430643700,5.892643798828125,1.9148480892181396,4.150403022766113,2.131078004837036
1707603274449537300,5.911537353515625,0.12270444631576538,8.121143341064453,5.044745445251465
1707603274468430600,5.9304306640625,-2.70051908493042,10.184782028198242,7.07741641998291
1707603274487324200,5.94932421875,-5.103482246398926,11.201009750366211,6.918122291564941
1707603274506217700,5.9682177734375,-7.488072395324707,10.556063652038574,3.773071765899658
1707603274525111300,5.987111328125,-9.21554183959961,8.719694137573242,-0.05046343803405762
1707603274544004900,6.0060048828125,-10.790416717529297,5.444589614868164,-3.0875117778778076
1707603274562898400,6.0248984375,-11.643051147460938,0.7044820785522461,-3.192081928253174
1707603274581792000,6.0437919921875,-9.500588417053223,-4.257014274597168,-1.378896713256836
1707603274600685600,6.062685546875,-4.862559795379639,-7.729043960571289,0.35120463371276855
1707603274619579100,6.0815791015625,-0.5055781006813049,-9.934799194335938,1.2949402332305908
1707603274638472700,6.10047265625,7.91177225112915,-10.357698440551758,-0.2825202941894531
1707603274657366300,6.1193662109375,8.74472427368164,-10.310321807861328,-1.6840026378631592
1707603274676259800,6.138259765625,6.222221374511719,-11.174467086791992,-2.3904454708099365
1707603274695153400,6.1571533203125,4.743496417999268,-9.579565048217773,-2.27715802192688
1707603274714047000,6.176046875,3.6111745834350586,-7.2128520011901855,-3.737105131149292
1707603274732940300,6.194940185546875,2.1599042415618896,-3.168926239013672,-5.075183391571045
1707603274751833900,6.213833740234375,0.34852534532546997,1.315603256225586,-3.781238317489624
1707603274770727400,6.2327275390625,-0.8595160841941833,6.786877632141113,1.0756195783615112
1707603274789621000,6.25162109375,-3.042503833770752,10.102827072143555,4.833593845367432
1707603274808514600,6.2705146484375,-5.073331356048584,12.658987998962402,6.678227424621582
1707603274827408100,6.289408203125,-7.139763355255127,12.804128646850586,5.700824737548828
1707603274846301700,6.3083017578125,-8.655126571655273,9.655449867248535,3.8778796195983887
1707603274865195300,6.3271953125,-7.891483783721924,5.134981155395508,3.2448275089263916
1707603274884088800,6.3460888671875,-5.232239246368408,0.9795036315917969,2.6413421630859375
1707603274902982400,6.364982421875,-3.2652482986450195,-3.543308734893799,2.4152843952178955
1707603274921876000,6.3838759765625,0.024691343307495117,-7.02656888961792,1.7625823020935059
1707603274940769500,6.40276953125,2.550279378890991,-9.575127601623535,1.1486730575561523
1707603274959663000,6.4216630859375,4.4510416984558105,-11.286839485168457,0.6700024604797363
1707603274978556400,6.440556396484375,5.680215835571289,-11.67527961730957,-0.35252857208251953
1707603274997450000,6.459449951171875,5.620332717895508,-11.876041412353516,-2.9206981658935547
1707603275016343600,6.478343505859375,5.855462074279785,-11.115790367126465,-7.011688232421875
1707603275035237000,6.497237060546875,5.615055561065674,-10.248909950256348,-8.9737548828125
1707603275054130700,6.516130615234375,4.515834808349609,-8.658438682556152,-7.342146396636963
1707603275073024300,6.535024169921875,1.8075706958770752,-5.121840476989746,-3.962960720062256
1707603275091917800,6.553917724609375,-2.992114543914795,0.9077973365783691,0.5729069709777832
1707603275110811400,6.572811279296875,-8.685810089111328,5.640294551849365,3.717747449874878
1707603275129705000,6.591705078125,-12.648160934448242,8.516538619995117,3.086470127105713
1707603275148598500,6.6105986328125,-12.138301849365234,12.053016662597656,0.3808760643005371
1707603275167492000,6.6294921875,-10.185455322265625,12.399797439575195,-2.1660971641540527
1707603275186385700,6.6483857421875,-8.134658813476562,9.269935607910156,-2.5471348762512207
1707603275205279200,6.667279296875,-5.469344615936279,4.673795700073242,-0.5834217071533203
1707603275224172800,6.6861728515625,-2.3502449989318848,-0.21017932891845703,2.065687656402588
1707603275243066000,6.705066162109375,2.7758424282073975,-4.634206771850586,4.1952009201049805
1707603275261959700,6.723959716796875,5.016712188720703,-6.777414321899414,4.017200469970703
1707603275280853200,6.742853271484375,6.733234405517578,-9.572266578674316,2.6843514442443848
1707603275299746800,6.761746826171875,8.140308380126953,-12.040329933166504,0.4602484703063965
1707603275318640400,6.780640380859375,8.166717529296875,-13.311948776245117,0.3112916946411133
1707603275337534000,6.799533935546875,7.46497917175293,-12.251548767089844,1.7264204025268555
1707603275356427500,6.818427490234375,4.044717311859131,-9.914040565490723,3.2600502967834473
1707603275375321000,6.837321044921875,-0.3379703462123871,-4.781980037689209,2.1713719367980957
1707603275394214700,6.856214599609375,-5.643873691558838,0.9807548522949219,-0.037198543548583984
1707603275413108200,6.875108154296875,-10.478730201721191,6.695398807525635,-3.644664764404297
1707603275432001800,6.894001708984375,-12.174020767211914,9.494303703308105,-5.407811164855957
1707603275450895400,6.912895263671875,-10.889097213745117,11.751672744750977,-5.399446487426758
1707603275469789000,6.931788818359375,-9.095368385314941,11.943636894226074,-4.824339389801025
1707603275488682500,6.9506826171875,-7.983319282531738,9.59707260131836,-3.274864673614502
1707603275507575800,6.969575927734375,-6.077692031860352,5.748934745788574,-1.5307226181030273
1707603275526469400,6.988469482421875,-3.5547070503234863,1.6744327545166016,0.03794431686401367
1707603275545363000,7.007363037109375,-1.7619595527648926,-2.4506773948669434,1.7605271339416504
1707603275583150000,7.045150146484375,3.490748882293701,-9.467761993408203,1.7599949836730957
1707603275602043600,7.064043701171875,6.190741062164307,-13.12484359741211,0.32759666442871094
1707603275620937200,7.082937255859375,7.786624908447266,-15.310504913330078,1.3192319869995117
1707603275639830800,7.101830810546875,8.717545509338379,-15.337787628173828,1.991236686706543
1707603275658724400,7.120724365234375,8.230413436889648,-14.282740592956543,1.3490920066833496
1707603275677618000,7.139617919921875,4.383910655975342,-12.651559829711914,1.5126590728759766
1707603275696511500,7.158511474609375,-0.49792706966400146,-7.9088592529296875,1.5647578239440918
1707603275715405000,7.177405029296875,-6.221649646759033,-0.4341549873352051,-0.0019183158874511719
1707603275734298600,7.196298583984375,-11.869253158569336,6.195877552032471,-2.283754348754883
1707603275753192000,7.21519189453125,-16.123594284057617,13.211275100708008,-4.307162284851074
1707603275772085500,7.23408544921875,-15.811532974243164,16.593307495117188,-5.948757648468018
1707603275790979000,7.25297900390625,-13.575081825256348,15.330367088317871,-4.695207118988037
1707603275809873000,7.271872802734375,-9.873419761657715,11.51734733581543,-1.398172378540039
1707603275828766200,7.29076611328125,-6.476321697235107,6.994143962860107,1.8685226440429688
1707603275847659800,7.30965966796875,-4.122251033782959,2.4172496795654297,3.060530662536621
1707603275866553300,7.32855322265625,-2.3393735885620117,-2.3032240867614746,2.3547372817993164
1707603275885447000,7.347447021484375,-0.7416620254516602,-8.229517936706543,1.5720009803771973
1707603275904340500,7.366340576171875,1.4843945503234863,-13.586725234985352,1.460184097290039
1707603275923234000,7.385234130859375,4.78317928314209,-15.85075569152832,1.5357275009155273
1707603275942127600,7.404127685546875,7.087331295013428,-15.789804458618164,1.4976396560668945
1707603275961021200,7.423021240234375,8.089109420776367,-15.283703804016113,0.9125127792358398
1707603275979914800,7.441914794921875,7.644173622131348,-13.30411148071289,-0.2953219413757324
1707603275998808300,7.460808349609375,4.376916408538818,-10.554967880249023,-1.871999740600586
1707603276017702000,7.479701904296875,-0.8841285109519958,-5.620090484619141,-3.1954426765441895
1707603276036595500,7.498595458984375,-7.404164791107178,1.434349536895752,-3.802720069885254
1707603276055489000,7.517489013671875,-13.071584701538086,9.172920227050781,-2.6008620262145996
1707603276074382600,7.536382568359375,-14.39319896697998,15.4315185546875,-1.467719554901123
1707603276093276000,7.55527587890625,-12.318631172180176,17.60107421875,-1.134538173675537
1707603276112169500,7.57416943359375,-9.611623764038086,15.31692123413086,-1.5601801872253418
1707603276131063000,7.59306298828125,-7.40654182434082,10.006451606750488,-0.8803830146789551
1707603276149956600,7.61195654296875,-5.521528720855713,3.7032341957092285,0.7542195320129395
1707603276168850200,7.63085009765625,-3.378511428833008,-1.752924919128418,2.375062942504883
1707603276187743700,7.64974365234375,-0.9340161085128784,-6.282909393310547,2.71516752243042
1707603276206637300,7.66863720703125,1.0757825374603271,-10.193224906921387,1.4496784210205078
1707603276225531000,7.68753076171875,3.4157440662384033,-13.455524444580078,-0.16384124755859375
1707603276244424400,7.706424560546875,5.613509654998779,-15.459527969360352,-1.0587387084960938
1707603276263318000,7.725318115234375,6.515657901763916,-16.62493133544922,-0.575892448425293
1707603276282211600,7.744211669921875,6.409082412719727,-16.264860153198242,0.331240177154541
1707603276301105200,7.763105224609375,5.034720420837402,-14.660633087158203,0.6311702728271484
1707603276319998700,7.781998779296875,1.1815012693405151,-11.23150634765625,-0.2596111297607422
1707603276338892300,7.800892333984375,-3.6464285850524902,-5.098726749420166,-2.166815757751465
1707603276357785600,7.81978564453125,-8.547204971313477,3.894291877746582,-3.9713034629821777
1707603276376679400,7.838679443359375,-13.940186500549316,11.583566665649414,-4.618059158325195
1707603276395573000,7.857572998046875,-15.955160140991211,16.642498016357422,-4.493387699127197
1707603276414466600,7.876466552734375,-13.825846672058105,16.965808868408203,-3.6399006843566895
1707603276433360000,7.89535986328125,-9.927736282348633,14.19524097442627,-1.87786865234375
1707603276452253400,7.91425341796875,-7.589297771453857,8.589319229125977,0.5536355972290039
1707603276471147000,7.93314697265625,-5.650283336639404,2.858445644378662,2.7454566955566406
1707603276490040600,7.95204052734375,-3.694392681121826,-2.190730094909668,2.6977970600128174
1707603276508934100,7.97093408203125,-1.940283179283142,-7.400808811187744,0.6117887496948242
1707603276527827700,7.98982763671875,0.5545032024383545,-12.655776023864746,-0.989037036895752
1707603276546721300,8.00872119140625,4.177519798278809,-15.264477729797363,-0.9798736572265625
1707603276584508400,8.04650830078125,8.67806625366211,-14.480599403381348,1.581618309020996
1707603276603402000,8.065402099609376,7.022647380828857,-14.081377983093262,0.992220401763916
1707603276622295600,8.084295654296875,2.5855679512023926,-13.371170997619629,-0.5108494758605957
1707603276641189000,8.103189208984375,-1.3105816841125488,-10.170220375061035,-3.180939197540283
1707603276660082700,8.122082763671875,-4.353349208831787,-3.839486837387085,-4.2252888679504395
1707603276678976000,8.14097607421875,-7.856603622436523,3.379518985748291,-4.049987316131592
1707603276697869600,8.15986962890625,-11.275307655334473,9.437131881713867,-2.8440775871276855
1707603276716763400,8.178763427734374,-12.095364570617676,15.207456588745117,-2.0800838470458984
1707603276735657000,8.197656982421876,-11.386226654052734,16.76885223388672,-3.1031599044799805
1707603276754550300,8.21655029296875,-10.238155364990234,15.343404769897461,-4.136187553405762
1707603276773443800,8.23544384765625,-9.309830665588379,10.744369506835938,-4.028709888458252
1707603276792337400,8.25433740234375,-8.279921531677246,4.0326690673828125,-2.827864646911621
1707603276811231000,8.27323095703125,-6.231466293334961,-1.7144489288330078,-2.288318634033203
1707603276830124500,8.29212451171875,-4.792613506317139,-6.641851902008057,-2.8753623962402344
1707603276849018000,8.31101806640625,-3.3706459999084473,-11.190643310546875,-3.614053249359131
1707603276867911700,8.32991162109375,0.04425811767578125,-13.978658676147461,-4.921509742736816
1707603276886805200,8.34880517578125,4.132321357727051,-14.411781311035156,-5.476352691650391
1707603276905698800,8.36769873046875,8.246103286743164,-12.853286743164062,-4.561657905578613
1707603276924592400,8.38659228515625,7.2974653244018555,-11.237524032592773,-0.5467262268066406
1707603276943486000,8.40548583984375,2.865609645843506,-10.109288215637207,0.013292312622070312
1707603276962379500,8.424379638671875,0.334791898727417,-7.898157596588135,0.8078827857971191
1707603276981273000,8.443273193359374,-0.6351680755615234,-4.35185432434082,2.0886690616607666
1707603277000166700,8.462166748046876,-0.9737813472747803,0.8978357315063477,1.6062335968017578
1707603277019060000,8.48106005859375,-1.5583442449569702,3.8686370849609375,-0.49746423959732056
1707603277037953800,8.499953857421875,-1.8354103565216064,7.452969551086426,1.4845044612884521
1707603277056847400,8.518847412109375,-2.4911129474639893,11.590590476989746,5.534485816955566
1707603277075741000,8.537740966796875,-5.91053581237793,12.46745491027832,6.659571170806885
1707603277094634200,8.55663427734375,-10.302509307861328,8.200891494750977,5.241365432739258
1707603277113527800,8.57552783203125,-11.147653579711914,2.6072568893432617,3.3145415782928467
1707603277132421400,8.59442138671875,-8.736348152160645,-1.7016992568969727,-0.3264414072036743
1707603277151315000,8.61331494140625,-4.249115943908691,-4.965837478637695,-4.941201686859131
1707603277170208500,8.63220849609375,1.3239977359771729,-7.07534122467041,-8.603553771972656
1707603277189102000,8.65110205078125,6.498457908630371,-8.45814037322998,-10.028519630432129
1707603277207995600,8.66999560546875,9.429058074951172,-9.230140686035156,-6.86974573135376
1707603277226889200,8.68888916015625,7.912959098815918,-10.585424423217773,-1.2292665243148804
1707603277245782800,8.70778271484375,5.714643955230713,-10.712263107299805,-1.0609378814697266
1707603277264676400,8.72667626953125,3.7460083961486816,-8.630963325500488,-3.389516830444336
1707603277283570000,8.74556982421875,1.0147327184677124,-4.994994163513184,-2.3408384323120117
1707603277302463500,8.76446337890625,-1.7847980260849,0.4808692932128906,3.0181689262390137
1707603277321357000,8.783357177734375,-4.489109516143799,5.77512264251709,8.067635536193848
1707603277340250600,8.802250732421875,-7.441962242126465,9.65107250213623,8.471238136291504
1707603277359144200,8.821144287109375,-9.655193328857422,12.309988975524902,5.839624404907227
1707603277378037800,8.840037841796875,-9.786234855651855,10.823283195495605,3.771287202835083
1707603277396931300,8.858931396484374,-7.933980464935303,7.236781120300293,1.2081499099731445
1707603277415825000,8.877824951171876,-5.235407829284668,2.9016380310058594,-1.453778862953186
1707603277434718200,8.89671826171875,-3.5515613555908203,-1.5675783157348633,-4.9979071617126465
1707603277453611800,8.91561181640625,-0.12004876136779785,-5.463073253631592,-8.506133079528809
1707603277472505300,8.93450537109375,5.074312686920166,-8.402541160583496,-9.805502891540527
1707603277491399200,8.953399169921875,8.019173622131348,-9.419485092163086,-8.243095397949219
1707603277510292500,8.97229248046875,6.918879508972168,-10.166278839111328,-4.89546012878418
1707603277529186000,8.99118603515625,4.030543327331543,-10.795122146606445,-6.900846481323242
1707603277548079600,9.01007958984375,-1.8923075199127197,-6.060626983642578,-8.666356086730957
1707603277566973200,9.02897314453125,-3.3305604457855225,-7.795079231262207,-7.004048824310303
1707603277585866800,9.04786669921875,-0.8214752674102783,-7.9017462730407715,-1.5641016960144043
1707603277604760300,9.06676025390625,4.454620361328125,-4.49469518661499,5.840108394622803
1707603277623654000,9.08565380859375,8.397686004638672,-0.7217330932617188,13.462288856506348
1707603277642547500,9.10454736328125,6.410052299499512,0.9920141696929932,16.03022575378418
1707603277661441000,9.12344091796875,2.9575018882751465,3.0710155963897705,15.315171241760254
1707603277680334600,9.14233447265625,-0.4939451217651367,4.538405895233154,13.033101081848145
1707603277699228200,9.161228271484376,-3.806852340698242,4.785480499267578,9.136970520019531
1707603277718121700,9.180121826171876,-5.294499397277832,2.965900421142578,4.57363748550415
1707603277737015300,9.199015380859375,-4.4865570068359375,0.5638465881347656,0.1625838279724121
1707603277755908900,9.217908935546875,-2.7513017654418945,-1.368720531463623,-3.3946290016174316
1707603277774802400,9.236802490234375,-0.5937519073486328,-4.469730854034424,-3.557076930999756
1707603277793696000,9.255696044921875,3.2803754806518555,-7.742203712463379,-2.3514981269836426
1707603277812589600,9.274589599609374,8.370494842529297,-8.205668449401855,-1.6913385391235352
1707603277831483000,9.29348291015625,9.400556564331055,-9.252368927001953,-2.7642688751220703
1707603277850376700,9.312376708984376,5.13213586807251,-9.907455444335938,-4.06608772277832
1707603277869270300,9.331270263671875,0.5022858381271362,-8.747270584106445,-4.841153621673584
1707603277888163800,9.350163818359375,-0.4445303976535797,-4.942770004272461,-4.414311408996582
1707603277907057200,9.36905712890625,-1.1709719896316528,-1.410360336303711,-3.750803232192993
1707603277925950700,9.38795068359375,-1.647964358329773,0.45344066619873047,-2.5745527744293213
1707603277944844300,9.40684423828125,-1.4662675857543945,2.3469009399414062,1.2602074146270752
1707603277963737900,9.42573779296875,-1.542776346206665,4.5340681076049805,1.7964434623718262
1707603277982631400,9.44463134765625,-0.30520009994506836,7.18052864074707,-4.135438919067383
1707603278001525000,9.46352490234375,0.6743159294128418,6.583230972290039,-5.28387451171875
1707603278020418600,9.48241845703125,1.1324031352996826,4.472526550292969,-3.798116683959961
1707603278039312100,9.50131201171875,0.8219059705734253,1.9887762069702148,-1.1394422054290771
1707603278058205700,9.520205810546875,1.2047326564788818,0.595123291015625,1.3383933305740356
1707603278077099300,9.539099365234375,0.0021135807037353516,-1.3978862762451172,2.362931728363037
1707603278095992800,9.557992919921874,1.373422622680664,-2.5761284828186035,3.231675148010254
1707603278114886400,9.576886474609376,1.9608005285263062,-3.256930351257324,1.2618389129638672
1707603278133780000,9.595780029296876,1.9226751327514648,-4.274823188781738,-0.44597864151000977
1707603278152673500,9.614673583984375,1.6908397674560547,-4.383876800537109,-1.0667734146118164
1707603278171567000,9.633567138671875,1.4558942317962646,-3.9366559982299805,-0.9237194061279297
1707603278190555000,9.652554931640625,0.2140190601348877,-3.8686459064483643,-0.4846477508544922
1707603278209354200,9.671354248046875,-1.2379441261291504,-3.1965882778167725,-0.764678955078125
1707603278228247800,9.690247802734374,-2.1275076866149902,-1.7411617040634155,-1.231226921081543
1707603278247141400,9.709141357421874,-2.8346481323242188,-0.47324812412261963,-2.80548095703125
1707603278266035000,9.728034912109376,-3.974771022796631,0.5588821172714233,-5.325652122497559
1707603278284928300,9.74692822265625,-5.624940395355225,1.3193986415863037,-5.342769622802734
1707603278303822000,9.765822021484375,-6.257936477661133,2.028913736343384,-3.630051612854004
1707603278322715600,9.784715576171875,-5.430850505828857,2.464369297027588,-1.8181791305541992
1707603278341609200,9.803609130859375,-3.4860715866088867,1.6608827114105225,0.9197635650634766
1707603278360502500,9.82250244140625,-0.6837201118469238,0.8312969207763672,1.452054500579834
1707603278379396000,9.84139599609375,2.24179744720459,1.1599490642547607,1.3021016120910645
1707603278398289700,9.86028955078125,3.0476675033569336,2.2127885818481445,1.4966926574707031
1707603278417183500,9.87918359375,2.1474080085754395,0.05679488182067871,1.905761480331421
1707603278436076800,9.898076904296875,0.8644490242004395,-3.7871530055999756,2.3870503902435303
1707603278454970400,9.916970458984375,0.7205309867858887,-4.7815022468566895,5.021751403808594
1707603278473864000,9.935864013671875,-1.0019378662109375,-2.5098981857299805,2.7225050926208496
1707603278492757500,9.954757568359375,-3.3485517501831055,-0.919212818145752,-2.9966790676116943
1707603278511651000,9.973651123046874,-3.8324060440063477,-1.3424663543701172,-5.132250785827637
1707603278530544600,9.992544677734376,-3.7547473907470703,-2.1146888732910156,-3.4359421730041504
1707603278549438200,10.011438232421876,-2.585282325744629,-2.1475510597229004,0.030392885208129883
1707603278568331800,10.030331787109375,-2.2824621200561523,-0.24565863609313965,1.5696053504943848
1707603278606119000,10.068118896484375,-4.580711841583252,0.968010425567627,0.010234832763671875
1707603278625012500,10.087012451171875,-3.320941925048828,2.3258707523345947,-1.9273557662963867
1707603278643906000,10.105906005859374,1.7846770286560059,4.284902572631836,-4.2529144287109375
1707603278662799600,10.124799560546874,2.943448543548584,5.740991592407227,-4.375307559967041
1707603278681693200,10.143693115234376,2.777947187423706,5.101909637451172,-4.279090881347656
1707603278700586800,10.162586669921875,2.997117757797241,2.4289753437042236,-3.1967086791992188
1707603278719480300,10.181480224609375,4.218957424163818,1.4137423038482666,-2.171778678894043
1707603278738374000,10.200373779296875,3.630319118499756,0.8925745487213135,-0.8060646057128906
1707603278757267200,10.21926708984375,0.36020994186401367,-0.8070223331451416,-0.1698923110961914
1707603278776160800,10.238160888671874,-2.3986074924468994,-1.2228620052337646,2.9998884201049805
1707603278795054600,10.2570546875,-4.035043239593506,-1.0649669170379639,6.587492942810059
1707603278813948200,10.2759482421875,-5.370987415313721,-1.8571314811706543,8.870420455932617
1707603278832841500,10.294841552734376,-5.89298677444458,-2.4509010314941406,9.765524864196777
1707603278851735000,10.313735107421875,-6.501332759857178,-4.299243450164795,10.786543846130371
1707603278870628600,10.332628662109375,-5.58644962310791,-4.878701686859131,9.081537246704102
1707603278889522200,10.351522216796875,-4.577569484710693,-5.308408737182617,4.183009147644043
1707603278908415700,10.370415771484375,-4.248588562011719,-7.100063800811768,-2.4117369651794434
1707603278927309300,10.389309326171874,-1.1104803085327148,-7.825397968292236,-11.558570861816406
1707603278946203000,10.408202880859376,3.5310115814208984,-6.684457302093506,-19.65261459350586
1707603278965096400,10.427096435546876,7.815629005432129,-5.908255577087402,-21.50637435913086
1707603278983990000,10.445989990234375,8.560291290283203,-6.329041004180908,-16.694730758666992
1707603279002883600,10.464883544921875,7.01971435546875,-5.878927707672119,-8.630470275878906
1707603279021777200,10.483777099609375,4.774713516235352,-4.289703845977783,-2.111501693725586
1707603279040670700,10.502670654296875,3.199155330657959,-0.6189508438110352,4.959699630737305
1707603279059564300,10.521564208984374,2.0462992191314697,4.2285637855529785,13.615106582641602
1707603279078457900,10.540457763671874,-2.1633505821228027,7.093673229217529,15.65737533569336
1707603279097351400,10.559351318359376,-5.556176662445068,6.959403038024902,13.009543418884277
1707603279116245000,10.578244873046875,-6.53317928314209,4.549742221832275,10.856654167175293
1707603279135138600,10.597138671875,-5.054434776306152,1.2835960388183594,8.77426815032959
1707603279154032000,10.6160322265625,-4.019356727600098,-2.462409496307373,7.129098415374756
1707603279172925700,10.63492578125,-3.2207789421081543,-6.016241550445557,6.185373783111572
1707603279191819300,10.6538193359375,0.39672017097473145,-9.788667678833008,3.9945974349975586
1707603279210712800,10.672712890625,5.656324863433838,-10.669209480285645,0.3767547607421875
1707603279229606400,10.6916064453125,7.079087257385254,-9.879219055175781,-3.553982734680176
1707603279248500000,10.7105,5.955097198486328,-8.599516868591309,-5.349853515625
1707603279267393500,10.7293935546875,4.511203289031982,-7.890569686889648,-4.696125507354736
1707603279286287000,10.748287109375,2.868727684020996,-7.590240478515625,-2.6744959354400635
1707603279305180700,10.7671806640625,2.342073440551758,-5.021498680114746,1.1301038265228271
1707603279324074200,10.78607421875,0.5450864434242249,-4.349710464477539,1.543148398399353
1707603279342967800,10.8049677734375,-1.29470694065094,-1.8342781066894531,-0.013779759407043457
1707603279361861400,10.823861328125,-0.12394356727600098,3.086174964904785,-4.094218730926514
1707603279380755000,10.8427548828125,-1.029294490814209,6.056094169616699,-4.48847770690918
1707603279399648500,10.8616484375,-0.8075497150421143,5.654820442199707,-5.270486354827881
1707603279418542000,10.8805419921875,-1.249223232269287,5.339146614074707,-5.263710975646973
1707603279437435600,10.899435546875,-2.780956506729126,5.907373428344727,-2.387087106704712
1707603279456329200,10.9183291015625,-5.780054092407227,5.926966667175293,-0.4730343818664551
1707603279475222500,10.937222412109374,-7.53237247467041,4.551396369934082,0.4829897880554199
1707603279494116000,10.9561162109375,-8.417731285095215,2.7163543701171875,1.4326870441436768
1707603279513010000,10.975010009765626,-9.062896728515625,-0.19221782684326172,2.5876271724700928
1707603279531903500,10.993903564453126,-9.21121883392334,-3.7750816345214844,2.7933385372161865
1707603279550796800,11.012796875,-4.408158779144287,-5.479846477508545,0.6901133060455322
1707603279569690400,11.0316904296875,-0.0015053749084472656,-6.427722454071045,-1.7440147399902344
1707603279588584000,11.050583984375,2.216792106628418,-8.031078338623047,-2.822258234024048
1707603279626371000,11.08837109375,3.9876480102539062,-7.549410820007324,-0.3599052429199219
1707603279645264600,11.1072646484375,4.440206527709961,-4.529275894165039,1.3281283378601074
1707603279664158200,11.126158203125,3.9030184745788574,-0.11548614501953125,3.4272358417510986
1707603279683051800,11.1450517578125,3.7216687202453613,3.795106887817383,3.4595108032226562
1707603279701945300,11.1639453125,2.52127742767334,6.97159481048584,1.6641391515731812
1707603279720839000,11.1828388671875,-1.425191879272461,9.076952934265137,-2.2631006240844727
1707603279739732500,11.201732421875,-6.398212909698486,8.808768272399902,-3.247257709503174
1707603279758626000,11.2206259765625,-9.093023300170898,7.231406211853027,-3.0550477504730225
1707603279777519600,11.23951953125,-6.719494819641113,5.4995622634887695,-1.0599583387374878
1707603279796413200,11.2584130859375,-1.0290708541870117,4.078970909118652,-0.36685097217559814
1707603279815306800,11.277306640625,-1.3556923866271973,0.7065582275390625,-1.6852811574935913
1707603279834200300,11.296200439453125,-0.6211771965026855,-2.61002779006958,-3.5287675857543945
1707603279853094000,11.315093994140625,2.9077529907226562,-5.492714881896973,-1.049072265625
1707603279871987500,11.333987548828125,5.316535949707031,-8.110429763793945,1.5516912937164307
1707603279890881000,11.352881103515625,5.085535049438477,-10.24306869506836,1.0748505592346191
1707603279909774600,11.371774658203124,5.246083736419678,-8.307148933410645,-3.2022180557250977
1707603279928668200,11.390668212890626,4.8624138832092285,-6.826842784881592,-9.024480819702148
1707603279947561700,11.409561767578126,3.328317165374756,-7.601477146148682,-12.370853424072266
1707603279966455300,11.428455322265625,-2.39721417427063,-6.741893291473389,-11.478631973266602
1707603279985348900,11.447348876953125,-0.38968002796173096,-5.865236282348633,-4.014986038208008
1707603280004242400,11.466242431640625,1.9908320903778076,-4.57873010635376,0.9860591888427734
1707603280023136000,11.485135986328125,4.578016757965088,-2.077549457550049,4.1939287185668945
1707603280042029600,11.504029541015624,4.776911735534668,0.22184228897094727,7.788943290710449
1707603280060923100,11.522923095703124,3.2515575885772705,4.558199882507324,13.019181251525879
1707603280079816700,11.541816650390626,-2.6486897468566895,7.7989373207092285,14.009844779968262
1707603280098710000,11.5607099609375,-8.225167274475098,7.1747894287109375,11.455416679382324
1707603280117603800,11.579603759765625,-10.228363037109375,3.0264272689819336,9.465437889099121
1707603280136497400,11.598497314453125,-8.683919906616211,-0.750983715057373,9.957632064819336
1707603280155391000,11.617390869140625,-5.961125373840332,-3.5659961700439453,10.591531753540039
1707603280174284300,11.6362841796875,-2.878492832183838,-6.829833984375,8.659591674804688
1707603280193178000,11.65517822265625,2.2078113555908203,-8.94096851348877,2.9774723052978516
1707603280212071700,11.67407177734375,4.950050354003906,-8.89181137084961,-2.575958728790283
1707603280230965200,11.69296533203125,5.337462902069092,-8.738180160522461,-4.65544319152832
1707603280249858600,11.711858642578125,3.868635892868042,-8.626900672912598,-4.224085807800293
1707603280268752100,11.730752197265625,2.8656179904937744,-7.845093250274658,-4.737192630767822
1707603280287646000,11.74964599609375,2.3404431343078613,-7.1219482421875,-6.5931172370910645
1707603280306539500,11.76853955078125,1.9133985042572021,-6.5518999099731445,-7.878176212310791
1707603280325432800,11.787432861328124,1.9718496799468994,-5.508434772491455,-6.615715026855469
1707603280344326400,11.806326416015626,2.332885265350342,-4.192339897155762,-2.876063108444214
1707603280363220000,11.825219970703126,2.191351890563965,-0.9897408485412598,0.4969911575317383
1707603280382113800,11.84411376953125,0.18122994899749756,3.193603992462158,3.605159282684326
1707603280401007000,11.863007080078125,-1.2428953647613525,4.706752777099609,6.126544952392578
1707603280419900700,11.881900634765625,-1.6605626344680786,4.293760299682617,8.206425666809082
1707603280438794200,11.900794189453125,-1.533109188079834,5.167117595672607,10.095523834228516
1707603280457687800,11.919687744140624,-1.8339558839797974,6.343871116638184,10.575067520141602
1707603280476581400,11.938581298828124,-3.684377431869507,4.3518829345703125,8.054162979125977
1707603280495475000,11.957474853515626,-5.687132835388184,1.4520583152770996,5.11100435256958
1707603280514368500,11.976368408203125,-7.465506553649902,-2.120609760284424,3.220829963684082
1707603280533262000,11.995261962890625,-4.173606872558594,-4.045524597167969,-0.805729866027832
1707603280552155600,12.01415576171875,-1.1269168853759766,-4.393397331237793,-5.877562522888184
1707603280571049200,12.03304931640625,0.21549439430236816,-4.277456760406494,-6.669224739074707
1707603280589942800,12.05194287109375,1.7500383853912354,-3.6543612480163574,-5.166935920715332
1707603280608836400,12.07083642578125,2.0602424144744873,-4.162792682647705,-4.339016914367676
1707603280627730000,12.08972998046875,1.6146340370178223,-4.700132846832275,-5.065971851348877
1707603280646623500,12.10862353515625,2.662471294403076,-3.66353702545166,-6.046555519104004
1707603280665517000,12.12751708984375,3.3470797538757324,-1.826249361038208,-5.784112930297852
1707603280684410600,12.14641064453125,3.0786542892456055,-0.4487607479095459,-3.6065897941589355
1707603280703304200,12.16530419921875,2.442742347717285,1.438035488128662,0.3276557922363281
1707603280722197800,12.18419775390625,1.3116791248321533,4.687342643737793,5.923334121704102
1707603280741091300,12.20309130859375,-1.5906238555908203,7.349671840667725,9.316805839538574
1707603280759985000,12.22198486328125,-4.404416084289551,6.861745834350586,9.96993350982666
1707603280778878500,12.24087841796875,-5.052898406982422,2.9232635498046875,10.37269401550293
1707603280797772000,12.25977197265625,-3.8249435424804688,-1.5370759963989258,11.370079040527344
1707603280816665600,12.27866552734375,-1.5158947706222534,-4.653913974761963,11.274194717407227
1707603280835559200,12.29755908203125,-0.5827707052230835,-6.3199076652526855,10.455474853515625
1707603280854452700,12.31645263671875,0.6495958566665649,-7.926420211791992,6.996494770050049
1707603280873346300,12.33534619140625,2.2005324363708496,-6.929319858551025,1.6750307083129883
1707603280892240000,12.354239990234374,0.07196497917175293,-5.538853645324707,-1.2038002014160156
1707603280911133400,12.373133544921876,-0.6760458946228027,-5.479785442352295,-1.8508052825927734
1707603280930027000,12.392027099609376,2.037048101425171,-5.792415142059326,-4.011203765869141
1707603280948920600,12.410920654296875,3.212536573410034,-6.004919052124023,-3.596526622772217
1707603280967814100,12.429814208984375,2.3632302284240723,-5.7838897705078125,-6.8574700355529785
1707603280986707700,12.448707763671875,1.7730348110198975,-5.55855655670166,-10.16025161743164
1707603281005601300,12.467601318359375,2.9278624057769775,-5.662093639373779,-9.50732421875
1707603281024494800,12.486494873046874,3.761988639831543,-4.602761268615723,-7.936700820922852
1707603281043388400,12.505388427734376,2.020944833755493,-3.0364742279052734,-5.638666152954102
1707603281062282000,12.524281982421876,0.6410284042358398,-1.430579662322998,-1.1046366691589355
1707603281081175600,12.543175537109375,-0.18001091480255127,-0.22236919403076172,2.390019416809082
1707603281100069000,12.562069091796875,-0.10077190399169922,1.7332019805908203,8.050737380981445
1707603281118962700,12.580962646484375,1.6944527626037598,3.857916831970215,13.772432327270508
1707603281137856300,12.599856201171875,1.214173674583435,4.469641208648682,16.856258392333984
1707603281156749800,12.618749755859374,-1.4323248863220215,3.594844341278076,15.559762954711914
1707603281175643400,12.637643310546874,-4.350602626800537,0.004232883453369141,12.660985946655273
1707603281194537000,12.656536865234376,-5.491339206695557,-3.989193916320801,9.334561347961426
1707603281213430500,12.675430419921875,-6.289173126220703,-8.158653259277344,6.152695178985596
1707603281232324000,12.694323974609375,-3.995079517364502,-10.447345733642578,3.3018226623535156
1707603281251217700,12.7132177734375,5.611327171325684,-9.015835762023926,-2.2835278511047363
1707603281270111200,12.732111328125,7.633471488952637,-6.437338829040527,-5.269496917724609
1707603281289004800,12.7510048828125,3.0373647212982178,-6.047919273376465,-6.437594413757324
1707603281307898400,12.7698984375,1.8827269077301025,-5.550738334655762,-7.572527885437012
1707603281326792000,12.7887919921875,2.403092384338379,-5.09099006652832,-9.632349967956543
1707603281345685500,12.807685546875,1.6418172121047974,-3.9995670318603516,-7.146811008453369
1707603281364579000,12.8265791015625,2.3635783195495605,-4.511272430419922,-2.2780699729919434
1707603281383472600,12.84547265625,4.092160701751709,-4.872657775878906,0.26683473587036133
1707603281402366000,12.864365966796875,5.743634223937988,-3.5019917488098145,-0.03444933891296387
1707603281421259800,12.883259765625,5.804778099060059,-1.205514907836914,1.7124545574188232
1707603281440153300,12.9021533203125,4.919140338897705,0.9313154220581055,5.419631481170654
1707603281459047000,12.921046875,2.3243894577026367,1.6406822204589844,7.666380882263184
1707603281477940200,12.939940185546876,-0.09579932689666748,2.3612098693847656,6.931070327758789
1707603281496834000,12.958833984375,-1.7758327722549438,3.200925827026367,5.9223456382751465
1707603281515727600,12.9777275390625,-3.155956983566284,4.013794898986816,4.404580116271973
1707603281534621200,12.99662109375,-5.721756935119629,4.225154876708984,1.264263391494751
1707603281553514500,13.015514404296875,-6.033501625061035,2.577519416809082,-2.191741466522217
1707603281572408300,13.034408203125,-5.514769554138184,1.0715885162353516,-3.0012199878692627
1707603281591302000,13.053302001953124,-3.929339647293091,0.6152286529541016,-2.7989630699157715
1707603281610195500,13.072195556640626,-2.2715799808502197,-0.7366647720336914,-1.570509433746338
1707603281629088800,13.0910888671875,-1.1641592979431152,-3.10427188873291,-0.016086101531982422
1707603281647982300,13.109982421875,0.04977214336395264,-5.468258857727051,1.6468522548675537
1707603281666876200,13.128876220703125,0.9968872666358948,-6.865131855010986,2.922423839569092
1707603281685769700,13.147769775390625,2.2533371448516846,-7.630671977996826,3.0281481742858887
1707603281704663000,13.1666630859375,3.854835271835327,-7.6373772621154785,2.539759874343872
1707603281723556600,13.185556640625,4.8855767250061035,-6.855051517486572,0.36075305938720703
1707603281742450400,13.204450439453124,4.9105401039123535,-4.41941499710083,-1.7159242630004883
1707603281761344000,13.223343994140626,3.699244976043701,-0.93505859375,-3.9621806144714355
1707603281780237300,13.2422373046875,1.2470837831497192,3.346585273742676,-5.112387180328369
1707603281799131000,13.261130859375,-2.110650062561035,6.967949390411377,-4.305014610290527
1707603281818024400,13.2800244140625,-6.19188928604126,9.171409606933594,-3.5095176696777344
1707603281836918300,13.298918212890625,-9.8594388961792,9.897936820983887,-3.5767688751220703
1707603281855811600,13.3178115234375,-11.420087814331055,7.9007415771484375,-3.82596492767334
1707603281874705200,13.336705078125,-10.068014144897461,3.9061803817749023,-2.9477148056030273
1707603281893598700,13.3555986328125,-7.2414164543151855,-1.0190892219543457,-0.8348751068115234
1707603281912492500,13.374492431640626,-4.452695369720459,-5.166851043701172,0.9630508422851562
1707603281931385900,13.3933857421875,-1.4514083862304688,-8.226762771606445,1.8919181823730469
1707603281950279400,13.412279541015625,4.288600921630859,-10.145535469055176,4.221116542816162
1707603281969173000,13.431173095703125,5.768933296203613,-10.449914932250977,4.670321941375732
1707603281988066600,13.450066650390625,7.364916801452637,-10.514568328857422,4.532989025115967
1707603282006960000,13.468960205078124,7.683629035949707,-10.516483306884766,3.1019043922424316
1707603282025853700,13.487853759765626,7.351500511169434,-9.660531997680664,1.4220170974731445
1707603282044747300,13.506747314453126,5.611553192138672,-7.498113632202148,-0.3973121643066406
1707603282063640800,13.525640869140625,1.1017286777496338,-3.5568628311157227,-1.9509010314941406
1707603282082534400,13.544534423828125,-2.652221441268921,1.7484560012817383,-3.889950752258301
1707603282101428000,13.563427978515625,-5.743177890777588,6.968183994293213,-4.307430744171143
1707603282120321500,13.582321533203125,-9.020763397216797,10.229618072509766,-4.59066915512085
1707603282139215000,13.601215087890624,-11.434493064880371,10.215578079223633,-4.04595422744751
1707603282158108700,13.620108642578124,-10.646925926208496,8.366620063781738,-2.9906749725341797
1707603282177002200,13.639002197265626,-7.680479526519775,5.397550106048584,-1.6688928604125977
1707603282195895800,13.657895751953125,-4.27224588394165,2.05488920211792,-0.26998186111450195
1707603282214789400,13.676789306640625,-1.453905463218689,-1.058537483215332,0.9190206527709961
1707603282233683000,13.695682861328125,1.0785502195358276,-3.861283302307129,1.5890021324157715
1707603282252576500,13.714576416015625,2.9358184337615967,-6.4764862060546875,2.1573433876037598
1707603282271470000,13.733469970703124,4.460986137390137,-8.467601776123047,2.388457775115967
1707603282290363600,13.75236376953125,5.916537284851074,-10.315279006958008,2.302114963531494
1707603282309257200,13.77125732421875,6.627017974853516,-11.473541259765625,2.543025493621826
1707603282328150800,13.79015087890625,6.423023223876953,-11.817136764526367,2.6691880226135254
1707603282347044400,13.80904443359375,4.948813438415527,-10.943373680114746,2.038543701171875
1707603282365938000,13.82793798828125,1.9944316148757935,-7.460879325866699,0.7458372116088867
1707603282384831500,13.84683154296875,-2.933277130126953,-0.5332117080688477,-1.6421308517456055
1707603282403725000,13.86572509765625,-8.3854341506958,6.7021379470825195,-4.924907684326172
1707603282422618600,13.88461865234375,-12.659188270568848,10.698624610900879,-6.230001449584961
1707603282441512200,13.90351220703125,-12.898090362548828,13.089286804199219,-7.1404571533203125
1707603282460405800,13.92240576171875,-12.177945137023926,11.163009643554688,-5.201723098754883
1707603282479299300,13.94129931640625,-10.152653694152832,6.776578903198242,-2.4049644470214844
1707603282498193000,13.96019287109375,-5.912153244018555,2.4197535514831543,0.5471930503845215
1707603282517086500,13.97908642578125,-2.001939535140991,-0.9695754051208496,2.2913026809692383
1707603282535980000,13.99797998046875,0.74207603931427,-3.591989755630493,2.952989101409912
1707603282554873600,14.01687353515625,1.9976481199264526,-5.907486438751221,2.5708670616149902
1707603282573767200,14.03576708984375,3.5214264392852783,-8.498701095581055,2.61171817779541
1707603282592660700,14.05466064453125,4.932989120483398,-10.461970329284668,3.287583827972412
1707603282611554300,14.07355419921875,6.050176620483398,-11.318855285644531,3.756040573120117
1707603282630447900,14.09244775390625,6.558151721954346,-10.840254783630371,3.416642665863037
1707603282649341400,14.111341552734375,5.777107238769531,-10.078670501708984,1.87754487991333
1707603282668235000,14.130235107421875,4.284095764160156,-8.845369338989258,0.021976470947265625
1707603282687128600,14.149128662109375,0.7731212377548218,-5.8806610107421875,-1.228713035583496
1707603282706022100,14.168022216796874,-2.9158153533935547,-0.31582069396972656,-2.755406379699707
1707603282724915700,14.186915771484376,-7.051216125488281,5.622157573699951,-3.63671875
1707603282743809300,14.205809326171876,-10.634492874145508,10.304170608520508,-3.9303722381591797
1707603282762702800,14.224702880859375,-12.143431663513184,12.433679580688477,-4.0870513916015625
1707603282781596400,14.243596435546875,-12.078653335571289,11.788034439086914,-3.921189308166504
1707603282800490000,14.262489990234375,-10.79733657836914,8.4672212600708,-3.1923770904541016
1707603282819383600,14.281383544921875,-8.219921112060547,3.837658405303955,-1.5697550773620605
1707603282838277000,14.300277099609374,-4.954226493835449,-0.2715888023376465,-0.11657238006591797
1707603282857170700,14.319170654296874,-2.4163174629211426,-3.3548412322998047,0.6787047386169434
1707603282876064300,14.338064208984376,-0.6007049679756165,-6.0472259521484375,0.7963972091674805
1707603282894957800,14.356957763671875,0.6625193357467651,-8.47350025177002,0.12427330017089844
1707603282913851400,14.375851318359375,2.0805611610412598,-10.258811950683594,-0.23190832138061523
1707603282932745000,14.394744873046875,3.8203697204589844,-10.430938720703125,-0.9818005561828613
1707603282951638500,14.413638427734375,4.78717041015625,-10.063691139221191,-2.800191879272461
1707603282970532000,14.432531982421875,5.328795909881592,-8.991368293762207,-4.306954383850098
1707603282989425700,14.45142578125,4.74623966217041,-7.73917818069458,-4.581511497497559
1707603283008319200,14.4703193359375,2.367575168609619,-6.561384201049805,-4.039289951324463
1707603283027212800,14.489212890625,-0.24796974658966064,-5.027442455291748,-3.0656843185424805
1707603283046106400,14.5081064453125,-1.873593807220459,-2.756110191345215,-2.2333028316497803
1707603283065000000,14.527,-2.567441463470459,-0.037413597106933594,1.5111193656921387
1707603283083893500,14.5458935546875,-3.413771152496338,2.2198486328125,5.027783393859863
1707603283102787000,14.564787109375,-3.0257041454315186,4.345593452453613,6.424391269683838
1707603283121680600,14.5836806640625,-3.219966173171997,4.06540584564209,5.8188629150390625
1707603283140574200,14.60257421875,-2.6817967891693115,2.5685300827026367,3.7228782176971436
1707603283159467800,14.6214677734375,-1.0056593418121338,0.7197389602661133,2.272010564804077
1707603283178361300,14.640361328125,1.5013353824615479,-0.5331897735595703,0.6768461465835571
1707603283197255000,14.6592548828125,3.4929237365722656,-1.7553348541259766,-0.5718220472335815
1707603283216148500,14.6781484375,3.8727540969848633,-1.9865002632141113,-1.1460055112838745
1707603283235042000,14.6970419921875,3.692643404006958,-3.0291495323181152,0.42565107345581055
1707603283253935600,14.715935546875,0.9513357877731323,-0.9648447036743164,-5.3863525390625
1707603283272829200,14.7348291015625,1.6154292821884155,-0.9845256805419922,-7.304959297180176
1707603283291722800,14.75372265625,3.5238089561462402,-1.5238232612609863,-5.229757308959961
1707603283310616300,14.7726162109375,4.878631114959717,-0.16748476028442383,-1.5729255676269531
1707603283329510000,14.791510009765625,4.15180778503418,1.8291196823120117,2.887815475463867
1707603283348403500,14.810403564453125,1.380630373954773,3.0106472969055176,5.868928909301758
1707603283367297000,14.829297119140625,-1.6656038761138916,3.491300106048584,7.9194655418396
1707603283386190600,14.848190673828125,-4.502728462219238,3.861191749572754,10.270589828491211
1707603283405084200,14.867084228515624,-6.650189399719238,2.6764073371887207,10.358077049255371
1707603283423977700,14.885977783203124,-7.352105617523193,-0.7497949600219727,8.766830444335938
1707603283442871300,14.904871337890626,-5.232086181640625,-3.3952455520629883,6.003057479858398
1707603283461764900,14.923764892578125,-1.6878010034561157,-4.369318008422852,0.6070291996002197
1707603283480658400,14.942658447265625,1.3964447975158691,-3.6476688385009766,-4.082159519195557
1707603283499552000,14.961552001953125,1.7037328481674194,-3.8822574615478516,-7.4661102294921875
1707603283518445600,14.980445556640625,1.1943528652191162,-5.300357818603516,-8.625528335571289
1707603283537339100,14.999339111328124,1.5940632820129395,-6.7049665451049805,-7.766946315765381
1707603283556232700,15.018232666015624,2.266757011413574,-7.108592510223389,-6.1069841384887695
1707603283575126300,15.037126220703126,3.2584424018859863,-6.272914886474609,-3.4491968154907227
1707603283594019800,15.056019775390626,4.291909217834473,-4.94014835357666,-1.5643553733825684
1707603283612913400,15.074913330078125,5.083499908447266,-3.1768798828125,0.475400447845459
1707603283631807000,15.093806884765625,5.475430488586426,-0.46199607849121094,3.784295082092285
1707603283650700500,15.112700439453125,3.6116034984588623,2.603743076324463,7.837085723876953
1707603283669594000,15.131593994140625,0.9158902168273926,5.1682024002075195,11.251327514648438
1707603283688487700,15.15048779296875,-1.8172121047973633,6.03033971786499,12.696974754333496
1707603283707381200,15.16938134765625,-3.973822593688965,5.21426248550415,12.494732856750488
1707603283726274800,15.18827490234375,-4.941178798675537,1.959867000579834,10.12769889831543
1707603283745168400,15.20716845703125,-4.439087390899658,-1.5054717063903809,7.008048057556152
1707603283764062000,15.22606201171875,-2.925588369369507,-4.178702354431152,2.510453224182129
1707603283782955500,15.24495556640625,-1.0658628940582275,-4.841002464294434,-3.096118927001953
1707603283801849000,15.26384912109375,0.43979835510253906,-5.064537048339844,-8.392881393432617
1707603283820742700,15.28274267578125,1.2659695148468018,-4.930914878845215,-10.970691680908203
1707603283839636200,15.30163623046875,2.2036168575286865,-4.673898696899414,-10.062712669372559
1707603283858529800,15.32052978515625,1.5394377708435059,-4.982244491577148,-7.102889537811279
1707603283877423400,15.33942333984375,1.3880999088287354,-3.567638874053955,-5.846122741699219
1707603283896317000,15.35831689453125,0.21936655044555664,-2.0122363567352295,-5.395483016967773
1707603283915210500,15.37721044921875,-0.36620378494262695,-0.36989450454711914,-4.434632778167725
1707603283934104000,15.39610400390625,0.09094810485839844,1.6954610347747803,-1.8318614959716797
1707603283952997600,15.41499755859375,-0.12787532806396484,3.9370052814483643,3.0299243927001953
1707603283971891200,15.43389111328125,-1.5399143695831299,6.22540283203125,7.282112121582031
1707603283990784800,15.45278466796875,-3.6609013080596924,7.3384294509887695,9.163599967956543
1707603284009678300,15.47167822265625,-4.9156012535095215,6.346549987792969,10.175360679626465
1707603284028572000,15.490572021484375,-5.0636210441589355,2.900099754333496,10.020566940307617
1707603284047465500,15.509465576171875,-3.0407447814941406,-0.06506967544555664,9.42032527923584
1707603284066359000,15.528359130859375,-0.4083263874053955,-2.6502304077148438,10.155951499938965
1707603284085252600,15.547252685546875,1.3549091815948486,-5.494025230407715,9.227266311645508
1707603284104146200,15.566146240234374,1.982900619506836,-8.359528541564941,7.683097839355469
1707603284123039700,15.585039794921874,2.1304266452789307,-9.99281120300293,5.284827709197998
1707603284141933300,15.603933349609376,2.2167654037475586,-11.058304786682129,2.562375068664551
1707603284160827000,15.622826904296875,2.254802703857422,-11.460561752319336,-1.0655083656311035
1707603284179720400,15.641720458984375,1.6555116176605225,-10.005924224853516,-5.538806915283203
1707603284198614000,15.660614013671875,1.0283236503601074,-7.134795188903809,-7.743856430053711
1707603284217507600,15.679507568359375,1.8857526779174805,-5.213132858276367,-8.871160507202148
1707603284236401200,15.698401123046875,1.626158356666565,-3.904275894165039,-8.60082721710205
1707603284255294700,15.717294677734374,1.4726665019989014,-2.2593994140625,-7.2618608474731445
1707603284274188300,15.736188232421876,1.511057734489441,-0.6370267868041992,-4.209804534912109
1707603284293081900,15.755081787109376,2.3932578563690186,1.2712879180908203,-0.46158742904663086
1707603284311975400,15.773975341796875,1.9607502222061157,3.1840200424194336,1.3068060874938965
1707603284330869000,15.792868896484375,0.4437059462070465,3.585329055786133,1.4115605354309082
1707603284349762600,15.811762451171875,-0.016560673713684082,4.173765182495117,1.069185733795166
1707603284368656100,15.83065625,0.4093654453754425,5.370034217834473,2.8198041915893555
1707603284387549700,15.8495498046875,-0.9903760552406311,6.030849456787109,4.99566125869751
1707603284406443300,15.868443359375,-2.4018754959106445,5.837786674499512,6.249571323394775
1707603284425336800,15.8873369140625,-3.0708272457122803,4.749103546142578,6.670188903808594
1707603284444230400,15.90623046875,-3.328385353088379,2.899116039276123,5.889890193939209
1707603284463124000,15.9251240234375,-4.784948825836182,-0.2069263458251953,4.2568769454956055
1707603284482017500,15.944017578125,-5.77250337600708,-3.5093183517456055,2.107452869415283
1707603284500911000,15.9629111328125,-2.4614052772521973,-3.992954730987549,-0.6023430824279785
1707603284519804700,15.9818046875,0.4216008186340332,-4.044894218444824,-4.0709452629089355
1707603284538698200,16.0006982421875,2.052684783935547,-5.36677885055542,-7.402849197387695
1707603284557591800,16.019591796875,3.749021053314209,-6.145336151123047,-8.716571807861328
1707603284576485400,16.0384853515625,4.156059741973877,-6.149089813232422,-8.315414428710938
1707603284595379000,16.05737890625,2.72942852973938,-6.223366737365723,-7.662075042724609
1707603284614272500,16.0762724609375,0.828819990158081,-5.135529518127441,-5.277345180511475
1707603284633166000,16.095166015625,1.28861403465271,-1.7610197067260742,0.24878358840942383
1707603284652059600,16.1140595703125,1.0920385122299194,0.5832371711730957,5.067092418670654
1707603284670953500,16.132953369140626,-1.114397406578064,3.173455238342285,8.91783332824707
1707603284689846800,16.1518466796875,-3.2591609954833984,5.894148349761963,11.592218399047852
1707603284708740400,16.170740234375,-5.812014102935791,6.079062461853027,12.101576805114746
1707603284727634000,16.189634033203124,-6.916917324066162,3.73854398727417,10.565034866333008
1707603284746527700,16.20852783203125,-6.066068649291992,1.1485419273376465,7.310956954956055
1707603284765421000,16.227421142578127,-4.40944766998291,-0.9807252883911133,4.969378471374512
1707603284784314600,16.246314697265625,-2.725128650665283,-3.8251895904541016,2.9618287086486816
1707603284803208200,16.265208251953126,-0.3858257532119751,-5.935046195983887,0.713874340057373
1707603284822102000,16.28410205078125,1.5490503311157227,-7.392271995544434,-1.4496798515319824
1707603284840995300,16.302995361328126,3.6967921257019043,-7.601396083831787,-3.4303669929504395
1707603284859889000,16.321888916015624,4.285797119140625,-8.123368263244629,-5.463944911956787
1707603284878782700,16.34078271484375,4.324430465698242,-8.249167442321777,-7.748353958129883
1707603284897676300,16.35967626953125,2.9374144077301025,-7.306921005249023,-8.062732696533203
1707603284916569600,16.378569580078125,1.0037012100219727,-5.187455177307129,-5.747997760772705
1707603284935463400,16.39746337890625,0.26622992753982544,-2.431713104248047,-1.6702885627746582
1707603284954357000,16.41635693359375,0.8942652940750122,0.33629703521728516,-0.035596370697021484
1707603284973250600,16.43525048828125,-0.14464479684829712,3.4997777938842773,1.0696592330932617
1707603284992144000,16.454143798828124,-0.9733456373214722,6.270347595214844,4.12872314453125
1707603285011037700,16.47303759765625,-2.2122974395751953,7.86720085144043,7.317507266998291
1707603285029931300,16.49193115234375,-3.522531032562256,7.207569122314453,7.584704399108887
1707603285048824800,16.510824951171877,-4.95929479598999,6.038506507873535,5.7469096183776855
1707603285067718100,16.52971826171875,-5.245527267456055,4.795365333557129,4.606457710266113
1707603285086612000,16.548612060546876,-4.712441921234131,3.871048927307129,4.1888322830200195
1707603285105505500,16.567505615234374,-4.375168323516846,2.4600696563720703,3.8875796794891357
1707603285124399000,16.586399169921876,-5.0043439865112305,-0.02257823944091797,3.998586893081665
1707603285143292700,16.605292724609374,-3.669738292694092,-1.802152156829834,3.8813343048095703
1707603285162186200,16.624186279296875,-1.6984223127365112,-4.628945350646973,3.1054024696350098
1707603285181079800,16.643079833984373,-0.2391505241394043,-8.212076187133789,1.121833324432373
1707603285199973400,16.661973388671875,1.5344223976135254,-10.473422050476074,-1.4370551109313965
1707603285218867000,16.680866943359376,2.474768877029419,-11.663497924804688,-2.6246790885925293
1707603285237760500,16.699760498046874,3.159430503845215,-10.515710830688477,-2.379481554031372
1707603285256654000,16.718654052734376,4.589041233062744,-7.9428534507751465,-2.2459216117858887
1707603285275547600,16.737547607421874,5.001435279846191,-5.320770740509033,-1.7813608646392822
1707603285294441200,16.756441162109375,4.492214679718018,-3.132969379425049,-0.8468494415283203
1707603285313334800,16.775334716796873,4.307666778564453,-1.3044381141662598,-0.43369078636169434
1707603285332228400,16.794228271484375,1.1974637508392334,2.6385812759399414,-1.4064550399780273
1707603285351122000,16.813121826171876,-2.0695033073425293,5.687314987182617,-1.060567855834961
1707603285370015500,16.832015380859374,-5.190417766571045,8.06279182434082,-1.351820468902588
1707603285388909000,16.850908935546876,-7.222694396972656,10.083877563476562,-2.803457736968994
1707603285407802600,16.869802734375,-7.995184421539307,10.278154373168945,-3.7484755516052246
1707603285426696200,16.8886962890625,-6.350391387939453,9.09642505645752,-2.5763981342315674
1707603285445589800,16.90758984375,-3.8508756160736084,6.687191963195801,-0.4059469699859619
1707603285464483300,16.9264833984375,-1.5532695055007935,4.1653594970703125,1.0769870281219482
1707603285483377000,16.945376953125,-0.7396466732025146,0.8254938125610352,1.9333882331848145
1707603285502270500,16.9642705078125,0.6084351539611816,-2.5955824851989746,2.4819068908691406
1707603285521164000,16.9831640625,1.7991852760314941,-6.193594455718994,2.566547155380249
1707603285540057600,17.0020576171875,2.6873769760131836,-9.34945297241211,2.5734567642211914
1707603285558951200,17.020951171875,4.38041877746582,-11.187079429626465,2.197127342224121
1707603285577844700,17.0398447265625,6.2832489013671875,-12.262014389038086,1.1500909328460693
1707603285596738300,17.05873828125,7.144938945770264,-12.829113960266113,-0.2241077423095703
1707603285615632000,17.0776318359375,5.997751235961914,-11.782745361328125,-0.1797943115234375
1707603285634525400,17.096525390625,4.484136581420898,-10.045890808105469,0.9776272773742676
1707603285653419000,17.1154189453125,2.132399797439575,-7.2039055824279785,1.9259114265441895
1707603285672312600,17.1343125,-1.488281488418579,-3.0691232681274414,1.562638759613037
1707603285691206100,17.1532060546875,-4.693085670471191,2.3846492767333984,-0.28686952590942383
1707603285710099700,17.172099609375,-7.564601898193359,6.278061866760254,-3.871067523956299
1707603285728993300,17.1909931640625,-10.920110702514648,7.627676486968994,-6.389207363128662
1707603285747886800,17.209886962890625,-12.618746757507324,8.304244995117188,-8.065449714660645
1707603285766780400,17.228780517578127,-13.112746238708496,7.960034370422363,-8.481498718261719
1707603285785674000,17.247674072265625,-11.918234825134277,6.232887268066406,-6.806023120880127
1707603285804567600,17.266567626953126,-9.060507774353027,3.5335822105407715,-4.462792873382568
1707603285823461000,17.285461181640624,-5.8444132804870605,0.9770517349243164,-1.731358528137207
1707603285842354700,17.304354736328126,-3.9366743564605713,-1.9251389503479004,0.876622200012207
1707603285861248300,17.323248291015624,-1.8882930278778076,-4.719144821166992,2.2268264293670654
1707603285880141800,17.342141845703125,1.734253168106079,-7.210321426391602,2.5982067584991455
1707603285899035400,17.361035400390627,6.046256065368652,-9.355001449584961,2.529609203338623
1707603285917929000,17.379928955078125,8.958687782287598,-11.467310905456543,3.835432291030884
1707603285936822500,17.398822509765626,10.301002502441406,-13.200613021850586,5.008519172668457
1707603285955716000,17.417716064453124,10.327228546142578,-13.529060363769531,3.784039258956909
1707603285974609700,17.436609619140626,9.330012321472168,-12.529608726501465,2.0510692596435547
1707603285993503500,17.45550341796875,5.71378231048584,-10.745792388916016,0.8549890518188477
1707603286012396800,17.474396728515625,-0.048797041177749634,-7.304332733154297,0.5280642509460449
1707603286031290400,17.493290283203127,-5.743766784667969,-2.155059814453125,0.10174751281738281
1707603286050184200,17.51218408203125,-9.110454559326172,4.556455612182617,-1.5642366409301758
1707603286069077800,17.531077880859375,-10.738338470458984,9.945964813232422,-3.8086414337158203
1707603286087971000,17.54997119140625,-11.857889175415039,12.290426254272461,-6.914712905883789
1707603286106864600,17.56886474609375,-12.183815956115723,11.758386611938477,-7.609299182891846
1707603286125758500,17.587758544921876,-12.01264762878418,8.527722358703613,-5.338019847869873
1707603286144652000,17.606652099609374,-10.350417137145996,4.01984167098999,-2.1373109817504883
1707603286163545300,17.62554541015625,-7.180307865142822,-0.12531709671020508,-0.1477508544921875
1707603286182439200,17.644439208984377,-4.025014400482178,-3.239673137664795,0.4485807418823242
1707603286201332700,17.663332763671875,-1.0706164836883545,-6.230822563171387,0.705167293548584
1707603286220226000,17.68222607421875,1.6175458431243896,-8.199066162109375,0.8566393852233887
1707603286239119600,17.70111962890625,4.935190200805664,-9.738801956176758,1.0933785438537598
1707603286258013400,17.720013427734376,6.958327293395996,-11.180747985839844,1.3952226638793945
1707603286276907000,17.738906982421874,8.463069915771484,-12.067211151123047,1.9159560203552246
1707603286295800300,17.75780029296875,9.21346664428711,-11.539254188537598,2.883045196533203
1707603286314694100,17.776694091796877,7.833090782165527,-10.532618522644043,2.5545995235443115
1707603286333587700,17.795587646484375,4.096409320831299,-8.563318252563477,1.5060114860534668
1707603286352481300,17.814481201171876,-0.6835227608680725,-4.700478553771973,-0.3632779121398926
1707603286371374800,17.833374755859374,-4.912802696228027,1.3469562530517578,-1.7840471267700195
1707603286390268400,17.852268310546876,-8.674531936645508,8.274065017700195,-2.1336207389831543
1707603286409162000,17.871161865234374,-11.387470245361328,12.733436584472656,-3.333073139190674
1707603286428055600,17.8900556640625,-12.843019485473633,14.042644500732422,-4.413013935089111
1707603286446949000,17.90894921875,-13.007655143737793,11.833613395690918,-5.16765022277832
1707603286465842700,17.9278427734375,-11.027786254882812,6.7390899658203125,-3.4212961196899414
1707603286484736300,17.946736328125,-7.38258171081543,1.9513306617736816,-0.8150372505187988
1707603286503629800,17.9656298828125,-3.4045209884643555,-1.7068843841552734,0.8935823440551758
1707603286522523400,17.9845234375,-1.1550393104553223,-4.233278274536133,1.161367416381836
1707603286541417000,18.0034169921875,0.45201539993286133,-6.921929836273193,0.6632790565490723
1707603286560310500,18.022310546875,2.5941057205200195,-9.4318208694458,-0.5379667282104492
1707603286579204000,18.0412041015625,4.889891624450684,-11.649602890014648,-0.7094631195068359
1707603286598097700,18.06009765625,6.608877182006836,-13.032559394836426,-0.006477832794189453
1707603286616991200,18.0789912109375,7.452078819274902,-13.254386901855469,1.0477700233459473
1707603286635884800,18.097884765625,7.212864875793457,-12.083600044250488,1.5377273559570312
1707603286654778400,18.1167783203125,5.6496171951293945,-10.5706787109375,0.4598073959350586
1707603286673672000,18.135671875,2.825294017791748,-8.412676811218262,-1.1646137237548828
1707603286692565500,18.1545654296875,-1.5945721864700317,-4.653160095214844,-1.446284294128418
1707603286711459000,18.173458984375,-4.615605354309082,0.7400422096252441,-0.08754634857177734
1707603286730352600,18.1923525390625,-6.908747673034668,5.963818550109863,-0.05954742431640625
1707603286749246200,18.21124609375,-9.936290740966797,11.156436920166016,-0.9059109687805176
1707603286768139800,18.230139892578126,-12.433316230773926,14.463932037353516,-2.3416309356689453
1707603286787033300,18.249033447265624,-13.658767700195312,14.309270858764648,-3.2956056594848633
1707603286805927000,18.267927001953126,-13.63497543334961,10.470588684082031,-2.7230076789855957
1707603286824820500,18.286820556640624,-10.888529777526855,4.8138957023620605,-1.4623332023620605
1707603286843714000,18.305714111328125,-6.687036991119385,0.25647449493408203,-0.8339314460754395
1707603286862607600,18.324607666015623,-3.4628992080688477,-3.9685516357421875,-0.8962583541870117
1707603286881501200,18.343501220703125,-1.2186100482940674,-8.097113609313965,-1.584221363067627
1707603286900394800,18.362394775390626,1.3685224056243896,-11.689339637756348,-2.7843198776245117
1707603286919288600,18.38128857421875,5.159908294677734,-13.813142776489258,-2.8895792961120605
1707603286938182000,18.400181884765626,7.494400978088379,-13.980430603027344,-1.43324613571167
1707603286957075500,18.419075439453124,7.54116678237915,-13.653743743896484,0.976618766784668
1707603286975969300,18.43796923828125,6.339791297912598,-12.596324920654297,2.158158540725708
1707603286994862800,18.45686279296875,4.5535407066345215,-10.535646438598633,0.6147823333740234
1707603287013756200,18.475756103515625,3.1132869720458984,-8.228597640991211,-2.452024459838867
1707603287032650000,18.49464990234375,0.10023060441017151,-5.358046054840088,-5.462337970733643
1707603287051543600,18.51354345703125,-4.991357326507568,-1.2890305519104004,-5.3442206382751465
1707603287070437000,18.53243701171875,-9.667634010314941,5.038052082061768,-2.882627010345459
1707603287089330400,18.551330322265624,-13.16855239868164,13.172088623046875,-1.4503164291381836
1707603287108224300,18.570224365234374,-16.007516860961914,16.967876434326172,-2.35249662399292
1707603287127117800,18.589117919921875,-17.340560913085938,15.63882064819336,-4.296350002288818
1707603287146011400,18.608011474609373,-14.916756629943848,9.603598594665527,-5.073471546173096
1707603287164905000,18.626905029296875,-9.348048210144043,3.404921054840088,-3.613290309906006
1707603287183798500,18.645798583984377,-4.700498580932617,-1.692131519317627,-1.285275936126709
1707603287202692000,18.664692138671874,-2.1918342113494873,-5.738563537597656,0.43830060958862305
1707603287221585700,18.683585693359376,0.3999748229980469,-9.286604881286621,-0.17829036712646484
1707603287240479200,18.702479248046874,3.4337916374206543,-12.252103805541992,-1.178112506866455
1707603287259372800,18.721372802734376,6.935613632202148,-13.612431526184082,-0.9339499473571777
1707603287278266400,18.740266357421874,8.233393669128418,-13.749375343322754,0.38259267807006836
1707603287297160000,18.759159912109375,7.757241249084473,-13.713770866394043,1.4804377555847168
1707603287316053500,18.778053466796877,6.492751121520996,-12.880632400512695,0.7825884819030762
1707603287334947000,18.796947021484375,4.576993942260742,-11.860361099243164,-1.602128028869629
1707603287353840600,18.815840576171876,0.11967609822750092,-10.275279998779297,-2.85862398147583
1707603287372734200,18.834734130859374,-3.990557909011841,-5.8127336502075195,-3.9135212898254395
1707603287391627800,18.853627685546876,-8.437429428100586,1.721689224243164,-3.6027631759643555
1707603287410521300,18.872521240234374,-13.16329288482666,10.848262786865234,-3.0965523719787598
1707603287429415000,18.891414794921875,-15.314937591552734,17.440967559814453,-4.945928573608398
1707603287448308500,18.91030859375,-17.618255615234375,17.601585388183594,-7.081155776977539
1707603287467202000,18.9292021484375,-16.7321720123291,12.746898651123047,-6.696475505828857
1707603287486095600,18.948095703125,-12.207275390625,5.955531120300293,-4.1965250968933105
1707603287504989200,18.9669892578125,-7.065153121948242,-0.49379634857177734,-0.9877538681030273
1707603287523882800,18.9858828125,-3.755005359649658,-4.753066539764404,0.36853551864624023
1707603287542776300,19.0047763671875,-1.1382659673690796,-7.715969085693359,-0.22290468215942383
1707603287561670000,19.023669921875,1.1245908737182617,-10.279304504394531,-2.396878242492676
1707603287580563500,19.0425634765625,4.180258274078369,-12.350095748901367,-3.366697311401367
1707603287599457000,19.06145703125,7.256471633911133,-12.972308158874512,-2.1544294357299805
1707603287618350600,19.0803505859375,8.297996520996094,-13.075967788696289,-0.1650071144104004
1707603287637244400,19.099244384765626,8.276338577270508,-13.281880378723145,1.1606402397155762
1707603287656137700,19.1181376953125,6.709141254425049,-12.875970840454102,0.07456111907958984
1707603287675031300,19.13703125,3.1687819957733154,-12.280672073364258,-2.754286289215088
1707603287693925000,19.155925048828124,-0.5218210816383362,-10.088180541992188,-4.762359619140625
1707603287712818700,19.174818603515625,-3.9950385093688965,-4.9896674156188965,-5.703810214996338
1707603287731712000,19.1937119140625,-9.209197998046875,3.0870513916015625,-5.574477672576904
1707603287750605800,19.212605712890625,-15.044625282287598,11.164117813110352,-3.4137320518493652
1707603287769499400,19.23149951171875,-18.36351203918457,17.045326232910156,-2.9324240684509277
1707603287788393000,19.25039306640625,-17.91200828552246,16.324968338012695,-3.4159083366394043
1707603287807286500,19.26928662109375,-14.38355541229248,10.329376220703125,-2.9351110458374023
1707603287826180000,19.28818017578125,-8.656275749206543,3.901942253112793,-0.9242305755615234
1707603287845073700,19.30707373046875,-4.622290134429932,-1.1908831596374512,0.8293290138244629
1707603287863967200,19.32596728515625,-1.906822681427002,-5.043842792510986,1.3171792030334473
1707603287882860800,19.34486083984375,-0.8026176691055298,-8.33120346069336,-0.25879907608032227
1707603287901754400,19.36375439453125,1.2963147163391113,-11.600424766540527,-2.7779831886291504
1707603287920648000,19.38264794921875,5.071020126342773,-13.795961380004883,-3.462118148803711
1707603287939541500,19.40154150390625,8.764483451843262,-13.624679565429688,-1.8763432502746582
1707603287958435000,19.42043505859375,9.808073043823242,-13.436691284179688,1.127110481262207
1707603287977328600,19.43932861328125,7.844482421875,-13.111367225646973,2.300096273422241
1707603287996222200,19.45822216796875,5.298773765563965,-12.425963401794434,0.2089710235595703
1707603288015115800,19.47711572265625,1.3952010869979858,-11.702635765075684,-2.652892589569092
1707603288034009300,19.49600927734375,-2.0759477615356445,-8.115108489990234,-5.136216640472412
1707603288052903000,19.51490283203125,-5.81440544128418,-1.7087974548339844,-5.909595012664795
1707603288071796500,19.53379638671875,-10.419267654418945,6.099618911743164,-4.121334552764893
1707603288090690000,19.55268994140625,-15.235923767089844,13.758096694946289,-2.6395044326782227
1707603288109583600,19.57158349609375,-17.52285385131836,17.408430099487305,-3.4869494438171387
1707603288128477200,19.590477294921875,-16.91485023498535,15.208404541015625,-4.719202995300293
1707603288147370800,19.609370849609373,-12.787631034851074,9.404788970947266,-4.019802570343018
1707603288166264300,19.628264404296875,-8.308794021606445,2.863396644592285,-1.9571013450622559
1707603288185158000,19.647157958984376,-4.93222713470459,-2.394930839538574,-0.5264291763305664
1707603288204051700,19.6660517578125,-1.9221978187561035,-5.714568138122559,-0.410062313079834
1707603288222945000,19.684945068359376,0.2708444595336914,-8.09807014465332,-1.5307974815368652
1707603288241838600,19.703838623046874,2.736846923828125,-10.511282920837402,-2.6008925437927246
1707603288260732400,19.722732421875,6.005695819854736,-11.76807975769043,-2.4310221672058105
1707603288279626000,19.7416259765625,8.096138000488281,-12.26205825805664,-1.09550142288208
1707603288298519300,19.760519287109375,8.111936569213867,-12.968944549560547,0.44007182121276855
1707603288317413000,19.7794130859375,6.45097017288208,-13.059271812438965,0.4287562370300293
1707603288336306700,19.798306640625,4.1554155349731445,-12.627119064331055,-1.3922295570373535
1707603288355200300,19.8172001953125,1.23019540309906,-11.690349578857422,-3.485537052154541
1707603288374093800,19.83609375,-1.0517361164093018,-9.360761642456055,-4.958008766174316
1707603288392987400,19.8549873046875,-3.5342721939086914,-5.702709674835205,-5.263688087463379
1707603288411881000,19.873880859375,-6.168104648590088,-0.8564062118530273,-3.3426966667175293
1707603288430774500,19.8927744140625,-9.542055130004883,5.480501174926758,-0.48714113235473633
1707603288449668000,19.911668212890625,-13.355833053588867,11.564120292663574,0.28386402130126953
1707603288468561700,19.930561767578126,-15.803323745727539,15.187564849853516,-1.9004359245300293
1707603288487455200,19.949455322265624,-15.98286247253418,14.753170013427734,-3.4640092849731445
1707603288506348800,19.968348876953126,-13.899776458740234,10.305865287780762,-2.8082361221313477
1707603288525242400,19.987242431640624,-9.717704772949219,4.680669784545898,-2.4621481895446777
1707603288544136000,20.006135986328125,-6.4313459396362305,-0.31880664825439453,-2.8961548805236816
1707603288563029500,20.025029541015623,-4.407403469085693,-4.835715293884277,-4.183032989501953
1707603288581923000,20.043923095703125,-2.628504753112793,-8.754522323608398,-6.107117652893066
1707603288600816600,20.062816650390626,0.4726942181587219,-10.111164093017578,-8.571147918701172
1707603288619710200,20.081710205078124,4.822353839874268,-9.29915714263916,-9.287793159484863
1707603288638603800,20.100603759765626,6.2505316734313965,-7.345131874084473,-7.561983585357666
1707603288657497300,20.119497314453124,5.990503311157227,-6.023833274841309,-4.940445423126221
1707603288676391000,20.138390869140625,3.8274476528167725,-5.35719108581543,-3.397331714630127
1707603288695284700,20.15728466796875,1.0937896966934204,-6.116436958312988,-4.5035786628723145
1707603288714178000,20.176177978515625,0.14251279830932617,-6.553928852081299,-3.810913562774658
1707603288733071600,20.195071533203127,1.7392468452453613,-6.188353061676025,2.4831290245056152
1707603288751965400,20.21396533203125,3.5134336948394775,-5.173762321472168,6.806397914886475
1707603288770859000,20.23285888671875,2.6619019508361816,-3.34918212890625,7.2560954093933105
1707603288789752300,20.25175244140625,1.079052448272705,-0.03158283233642578,7.145192623138428
1707603288808646100,20.270646240234374,-2.2181341648101807,4.061205863952637,7.45574951171875
1707603288827539700,20.289539794921875,-5.150026321411133,8.75051498413086,6.682984828948975
1707603288846433300,20.308433349609373,-8.583202362060547,10.25922679901123,3.0992038249969482
1707603288865326800,20.327326904296875,-10.363139152526855,6.933399200439453,1.2316546440124512
1707603288884220400,20.346220458984376,-8.43861198425293,2.8441286087036133,0.7216150760650635
1707603288903114000,20.365114013671874,-5.807505130767822,-1.2140941619873047,-1.2907567024230957
1707603288922007600,20.384007568359376,-1.5847043991088867,-4.179869651794434,-5.03745174407959
1707603288940901000,20.402901123046874,2.4712462425231934,-6.1836042404174805,-7.598604679107666
1707603288959794700,20.421794677734376,4.905302047729492,-7.799379348754883,-7.229803085327148
1707603288978688300,20.440688232421873,6.92529296875,-9.790689468383789,-5.0931596755981445
1707603288997581800,20.459581787109375,7.381619453430176,-10.38100814819336,-3.6734514236450195
1707603289016475400,20.478475341796877,4.648586750030518,-9.579957962036133,-2.3405566215515137
1707603289035369000,20.497368896484375,2.1597585678100586,-7.089899063110352,-0.8736553192138672
1707603289054262500,20.516262451171876,0.570250391960144,-3.2209081649780273,1.312135934829712
1707603289073156000,20.535156005859374,-0.8018929958343506,0.9569759368896484,3.665980339050293
1707603289092049700,20.554049560546876,-2.1716127395629883,4.900703430175781,5.286468029022217
1707603289110943200,20.572943115234374,-5.3370041847229,8.942828178405762,4.772466659545898
1707603289129836800,20.5918369140625,-6.814525604248047,11.904706954956055,4.518762111663818
1707603289148730400,20.61073046875,-8.853256225585938,10.324299812316895,3.380168914794922
1707603289167624000,20.6296240234375,-8.74533748626709,6.387173652648926,3.136789321899414
1707603289186517800,20.648517822265624,-7.047394275665283,1.352370262145996,3.1012065410614014
1707603289205411000,20.6674111328125,-3.698599338531494,-1.952690601348877,0.9196356534957886
1707603289224304600,20.6863046875,-1.1182787418365479,-3.3836183547973633,-1.9561753273010254
1707603289243198500,20.705198486328126,0.9776079654693604,-4.940151214599609,-4.754786491394043
1707603289262092000,20.724092041015624,2.2517967224121094,-6.769658088684082,-6.539865970611572
1707603289280985300,20.7429853515625,3.8995847702026367,-8.097671508789062,-7.458127498626709
1707603289299879200,20.761879150390627,4.760910987854004,-8.69828987121582,-5.431375503540039
1707603289318772700,20.780772705078125,5.402407646179199,-8.486189842224121,-2.335263729095459
1707603289337666000,20.799666015625,4.993968963623047,-6.804130554199219,1.6262035369873047
1707603289356560000,20.818559814453124,3.2674641609191895,-3.7258548736572266,4.763990879058838
1707603289375453400,20.837453369140626,-0.42583733797073364,0.5707130432128906,6.001509666442871
1707603289394347000,20.856346923828124,-4.111841201782227,5.971111297607422,6.706782341003418
1707603289413240600,20.875240478515625,-7.1160569190979,9.721457481384277,6.751603603363037
1707603289432134100,20.894134033203127,-9.888052940368652,10.70019817352295,3.6386806964874268
1707603289451027700,20.91302783203125,-9.98521614074707,7.088714599609375,2.072817325592041
1707603289469921300,20.93192138671875,-7.148350715637207,2.8717851638793945,2.5554490089416504
1707603289488814800,20.95081494140625,-4.788687705993652,-1.3731913566589355,1.4354755878448486
1707603289507708400,20.96970849609375,-0.8529994487762451,-4.542652606964111,-3.7320752143859863
1707603289526602000,20.98860205078125,3.3262507915496826,-5.797460079193115,-8.630494117736816
1707603289545495600,21.00749560546875,5.214349746704102,-6.4346418380737305,-9.627887725830078
1707603289564389000,21.02638916015625,5.28960657119751,-7.367892265319824,-6.544924736022949
1707603289583282700,21.04528271484375,5.242822647094727,-8.281255722045898,-5.425302982330322
1707603289602176300,21.06417626953125,3.729757785797119,-8.225235939025879,-5.94147253036499
1707603289621069800,21.08306982421875,0.10337209701538086,-6.434523105621338,-6.561405181884766
1707603289639963400,21.10196337890625,-1.3187419176101685,-3.1854467391967773,-3.6665470600128174
1707603289658857200,21.120857177734376,-1.040756106376648,-1.4683427810668945,-0.6133794784545898
1707603289677750500,21.13975048828125,-0.7836222648620605,-0.6843099594116211,1.3745460510253906
1707603289696644000,21.15864404296875,1.5622906684875488,-0.10195398330688477,2.6472392082214355
1707603289715538000,21.177537841796877,4.521629333496094,0.7120137214660645,5.952919960021973
1707603289734431500,21.196431396484375,5.50117301940918,1.7604069709777832,9.87394905090332
1707603289753324800,21.21532470703125,3.251300811767578,2.604030132293701,11.474264144897461
1707603289772218600,21.234218505859374,-0.11433744430541992,3.7423205375671387,11.055371284484863
1707603289791112200,21.2531123046875,-2.79439115524292,3.818297863006592,9.850295066833496
1707603289810005800,21.272005859375,-4.065848350524902,2.7370705604553223,8.38846206665039
1707603289828899300,21.2908994140625,-3.894700288772583,1.0070033073425293,6.9855055809021
1707603289847793000,21.30979296875,-3.8352243900299072,-1.998629093170166,5.28554105758667
1707603289866686500,21.3286865234375,-4.018984317779541,-5.534409046173096,3.231459617614746
1707603289885580000,21.347580078125,-1.4065520763397217,-8.015199661254883,-1.675011157989502
1707603289904473600,21.3664736328125,1.1669433116912842,-7.1665496826171875,-7.689126014709473
1707603289923367200,21.3853671875,1.732041835784912,-6.068933010101318,-12.715617179870605
1707603289942260700,21.4042607421875,1.5194039344787598,-5.816284656524658,-14.91186237335205
1707603289961154300,21.423154296875,0.8100185394287109,-5.886414527893066,-12.177648544311523
1707603289980048000,21.4420478515625,2.11293888092041,-4.986606121063232,-5.989048004150391
1707603289998941400,21.46094140625,2.0244295597076416,-4.692631721496582,-2.396639823913574
1707603290017835000,21.4798349609375,0.48961877822875977,-4.829453468322754,-0.49741220474243164
1707603290036728600,21.498728515625,2.1354081630706787,-2.237563133239746,3.6952662467956543
1707603290055622400,21.517622314453124,2.237077236175537,0.9916596412658691,9.176424026489258
1707603290074516000,21.536515869140626,0.0008690357208251953,2.934004545211792,12.505430221557617
1707603290093409300,21.5554091796875,-1.1044528484344482,4.170126438140869,12.94164752960205
1707603290112303000,21.57430322265625,-1.2393932342529297,4.463773727416992,13.627923965454102
1707603290131196700,21.59319677734375,-1.9388322830200195,2.826192855834961,12.358964920043945
1707603290150090200,21.61209033203125,-2.6008188724517822,0.5324797630310059,9.630500793457031
1707603290168983800,21.63098388671875,-3.1686201095581055,-2.23630952835083,6.2123494148254395
1707603290187877400,21.64987744140625,-3.5554006099700928,-5.045135498046875,0.9172511100769043
1707603290206771000,21.66877099609375,-2.2031664848327637,-6.409530162811279,-5.6781005859375
1707603290225664500,21.68766455078125,0.7341232299804688,-6.1842522621154785,-10.881338119506836
1707603290244558000,21.70655810546875,2.8226876258850098,-6.195893287658691,-13.898433685302734
1707603290263498800,21.725498779296874,3.206831932067871,-6.101912975311279,-11.562848091125488
1707603290282345200,21.74434521484375,2.904348850250244,-5.8491082191467285,-8.39883041381836
1707603290301238800,21.76323876953125,1.4076414108276367,-4.025650978088379,-6.477728843688965
1707603290320132400,21.78213232421875,-1.104619026184082,-2.880383253097534,-4.443805694580078
1707603290339026000,21.80102587890625,-0.8337588310241699,-1.230118751525879,-1.9319636821746826
1707603290357919500,21.81991943359375,0.8441195487976074,0.32512903213500977,1.5464763641357422
1707603290376813000,21.83881298828125,2.6918883323669434,1.606654167175293,6.493096351623535
1707603290395706600,21.85770654296875,3.5165748596191406,2.728390693664551,10.028627395629883
1707603290414600200,21.87660009765625,2.149840831756592,3.467655658721924,10.652214050292969
1707603290433494000,21.895493896484375,0.3646879196166992,3.310938835144043,10.16372299194336
1707603290452387600,21.9143876953125,-0.7591409683227539,2.0611534118652344,9.501270294189453
1707603290471281200,21.93328125,-1.0249888896942139,1.150710105895996,8.709159851074219
1707603290490174700,21.9521748046875,-1.3313255310058594,-0.18213272094726562,7.7436089515686035
1707603290509068300,21.971068359375,-2.7261199951171875,-2.101400852203369,6.0143818855285645
1707603290527961900,21.9899619140625,-3.343782424926758,-3.7545511722564697,3.363165855407715
1707603290546855400,22.00885546875,-2.2875123023986816,-5.125766754150391,0.30206918716430664
1707603290565749000,22.0277490234375,-1.286717414855957,-5.588403701782227,-2.525590419769287
1707603290584642600,22.046642578125,-0.4732179641723633,-5.867985725402832,-4.870254039764404
1707603290603536100,22.0655361328125,0.6019206047058105,-5.739434719085693,-5.502193927764893
1707603290622429700,22.0844296875,1.4926824569702148,-4.718703269958496,-5.9682769775390625
1707603290641323300,22.1033232421875,1.261892318725586,-4.075677394866943,-6.60012674331665
1707603290660216800,22.122216796875,0.6457915306091309,-3.151632785797119,-6.662578582763672
1707603290679110400,22.1411103515625,-0.503791093826294,-1.2164955139160156,-5.915629863739014
1707603290698004000,22.16000390625,-0.8216376304626465,-0.4784731864929199,-3.36252498626709
1707603290716897500,22.1788974609375,0.006761789321899414,-0.30322694778442383,1.0546541213989258
1707603290735791000,22.197791015625,3.4061737060546875,0.7438201904296875,6.719064235687256
1707603290754684700,22.2166845703125,3.3591020107269287,2.8295764923095703,12.757335662841797
1707603290773578500,22.23557861328125,3.236454486846924,4.575899124145508,13.084689140319824
1707603290792472000,22.25447216796875,1.8299064636230469,3.3481850624084473,10.968220710754395
1707603290811365600,22.27336572265625,0.4169301986694336,1.0535826683044434,7.927838325500488
1707603290830259200,22.29225927734375,-1.2995582818984985,-0.8582892417907715,5.486815929412842
1707603290849152800,22.31115283203125,-2.1222681999206543,-1.8622345924377441,4.734288215637207
1707603290868046300,22.33004638671875,-2.1605074405670166,-2.3973021507263184,-0.27986955642700195
1707603290886940000,22.34893994140625,-1.710515022277832,-3.988637924194336,-7.076785564422607
1707603290905833500,22.36783349609375,-0.24516081809997559,-4.124719619750977,-10.926828384399414
1707603290924727000,22.38672705078125,0.5978646278381348,-4.48210334777832,-10.778480529785156
1707603290943620600,22.40562060546875,0.7495377063751221,-3.96065616607666,-9.180225372314453
1707603290962514200,22.42451416015625,1.169196367263794,-4.571399211883545,-6.69929313659668
1707603290981407700,22.44340771484375,0.22393512725830078,-4.7570109367370605,-5.298659324645996
1707603291000301300,22.46230126953125,0.1291804313659668,-3.7172975540161133,-3.9309067726135254
1707603291019195000,22.48119482421875,-0.31114983558654785,-1.7112321853637695,-1.8496894836425781
1707603291038088400,22.50008837890625,-2.708059549331665,1.7202982902526855,0.7180242538452148
1707603291056982000,22.51898193359375,-5.592084884643555,5.924074649810791,3.7273621559143066
1707603291075875600,22.53787548828125,-7.702398777008057,8.116307258605957,8.048330307006836
1707603291094769200,22.55676904296875,-8.507951736450195,6.472343444824219,11.50359058380127
1707603291113663000,22.5756630859375,-6.587274551391602,3.3048629760742188,11.436849594116211
1707603291132556500,22.594556640625,-2.8817861080169678,0.44140052795410156,9.857786178588867
1707603291151450000,22.6134501953125,0.20229482650756836,-2.5075368881225586,6.801697254180908
1707603291170343700,22.63234375,2.2167625427246094,-4.671499252319336,1.6832199096679688
1707603291189237200,22.6512373046875,2.283043146133423,-5.988719940185547,-6.055761337280273
1707603291208130800,22.670130859375,3.1655077934265137,-5.2618513107299805,-9.457847595214844
1707603291227024400,22.6890244140625,3.8050994873046875,-4.933860778808594,-7.706175327301025
1707603291245918000,22.70791796875,2.6642088890075684,-5.211870193481445,-6.502643585205078
1707603291264811500,22.7268115234375,-0.06433510780334473,-4.620500564575195,-8.891092300415039
1707603291283705000,22.745705078125,-1.779887318611145,-3.8127686977386475,-8.308900833129883
1707603291302598700,22.7645986328125,-2.380995988845825,-2.948873519897461,-5.151057720184326
1707603291321492200,22.7834921875,-2.4838497638702393,-1.3961820602416992,-0.9089317321777344
1707603291340385800,22.8023857421875,0.49439144134521484,2.3705220222473145,4.586267471313477
1707603291359279400,22.821279296875,0.7185893058776855,5.245611190795898,11.79613208770752
1707603291378173000,22.8401728515625,-1.1960220336914062,6.02518367767334,15.563163757324219
1707603291397066500,22.85906640625,-1.8053312301635742,4.12888765335083,13.92360782623291
1707603291415960000,22.8779599609375,-0.816469669342041,2.918217182159424,11.367979049682617
1707603291434853600,22.896853515625,-1.4726474285125732,-0.1132354736328125,9.87995719909668
1707603291453747500,22.91574755859375,-1.4937543869018555,-3.1768574714660645,6.928323745727539
1707603291472641000,22.93464111328125,-2.579094409942627,-4.118772029876709,3.206851005554199
1707603291491534600,22.95353466796875,-2.5601277351379395,-5.206626892089844,0.6559772491455078
1707603291510428200,22.97242822265625,-2.5168285369873047,-5.311893939971924,-2.084784746170044
1707603291529321700,22.99132177734375,-2.2876172065734863,-5.128484725952148,-4.607928276062012
1707603291548215300,23.01021533203125,-2.2591896057128906,-3.545421600341797,-4.386079788208008
1707603291567108900,23.02910888671875,-3.0082590579986572,-3.844602108001709,-4.210175514221191
1707603291586002400,23.04800244140625,-3.611551284790039,-3.7816357612609863,-5.079098701477051
1707603291604896000,23.06689599609375,-4.026763916015625,-3.2291293144226074,-6.924367904663086
1707603291623789600,23.08578955078125,-5.169248104095459,-4.4201507568359375,-7.031858921051025
1707603291642683100,23.10468310546875,-4.538629055023193,-3.6083502769470215,-6.477843761444092
1707603291661576700,23.12357666015625,-0.5887079238891602,-4.034726619720459,-3.1420035362243652
1707603291680470300,23.14247021484375,2.612895965576172,-4.1287522315979,-1.2535120248794556
1707603291699363800,23.16136376953125,4.797443389892578,-3.4158527851104736,0.6030945777893066
1707603291718257400,23.18025732421875,7.993136405944824,-1.6839544773101807,1.7289289236068726
1707603291737151200,23.199151123046875,13.353422164916992,-0.033563852310180664,3.397928237915039
1707603291756044800,23.218044921875,12.999774932861328,-0.252915620803833,2.544283390045166
1707603291774938400,23.2369384765625,8.831611633300781,-1.9447128772735596,2.065145254135132
1707603291793832000,23.25583203125,6.0371246337890625,-2.682859420776367,-0.4165099859237671
1707603291812725500,23.2747255859375,2.981255531311035,-1.7394905090332031,-1.7347480058670044
1707603291831619000,23.293619140625,-1.2897052764892578,-0.43586015701293945,-1.7360570430755615
1707603291850512600,23.3125126953125,-1.5353398323059082,0.20356225967407227,1.503546953201294
1707603291869406200,23.33140625,-2.3995556831359863,0.34203338623046875,0.98386549949646
1707603291888299800,23.3502998046875,-0.37226104736328125,0.593841552734375,1.3443186283111572
1707603291907193300,23.369193359375,1.9524569511413574,0.2662186622619629,1.536245346069336
1707603291926087000,23.3880869140625,2.2759194374084473,-0.03966665267944336,0.9899793863296509
1707603291944980500,23.40698046875,0.5610432624816895,0.0010938644409179688,0.6177650690078735
1707603291963874000,23.4258740234375,-1.7674589157104492,-0.01670217514038086,0.7849053144454956
1707603291982767600,23.444767578125,-2.7777581214904785,-0.018989086151123047,0.7079511880874634
1707603292001661400,23.463661376953127,-1.8843879699707031,-0.13379716873168945,0.1124875545501709
1707603292020555000,23.482554931640625,-0.6374945640563965,-0.005756378173828125,-0.7387136220932007
1707603292039448600,23.501448486328126,-0.11099481582641602,0.06295442581176758,-0.5540550947189331
1707603292058342100,23.520342041015624,-0.07467031478881836,-0.024619579315185547,-0.22613310813903809
1707603292077235700,23.539235595703126,-0.16381597518920898,-0.02051401138305664,-0.19107186794281006
1707603292096129300,23.55812939453125,-0.8190364837646484,0.17822885513305664,-0.9609442353248596
1707603292115022800,23.57702294921875,-1.0172338485717773,-0.5643367767333984,-0.3547898530960083
1707603292133916400,23.59591650390625,-1.477780818939209,-0.8793559074401855,-0.601538896560669
1707603292152810000,23.61481005859375,-2.304274559020996,-0.7060823440551758,-0.8432309627532959
1707603292171703600,23.63370361328125,-3.006800413131714,0.04958486557006836,-0.735174834728241
1707603292190597000,23.65259716796875,-1.9842429161071777,0.6430258750915527,-0.30347299575805664
1707603292209490700,23.67149072265625,0.6444430351257324,0.36789417266845703,-0.015636026859283447
1707603292228384300,23.69038427734375,2.5474677085876465,-0.16648626327514648,-0.08499324321746826
1707603292247277800,23.70927783203125,3.022641658782959,-0.48282432556152344,0.19711899757385254
1707603292266171600,23.728171630859375,2.075958728790283,-0.5188174247741699,0.5541812181472778
1707603292285065000,23.74706494140625,0.724027156829834,-0.21501541137695312,0.3873426914215088
1707603292303958800,23.765958740234375,0.2649097442626953,0.13964176177978516,0.017541587352752686
1707603292322852400,23.784852294921876,0.11578607559204102,0.17438030242919922,-0.17387151718139648
1707603292341746000,23.803745849609374,0.07877445220947266,-0.0569305419921875,-0.046020448207855225
1707603292360639500,23.822639404296876,0.13927745819091797,-0.21585416793823242,0.05131024122238159
1707603292379533000,23.841532958984374,0.5607852935791016,-0.2692561149597168,0.03230816125869751
1707603292398426600,23.860426513671875,0.7827234268188477,-0.029709815979003906,-0.19262641668319702
1707603292417320200,23.8793203125,0.6974010467529297,0.0012378692626953125,0.06348121166229248
1707603292436213800,23.8982138671875,0.5055127143859863,0.0379490852355957,0.3319152593612671
1707603292455107300,23.917107421875,0.3406391143798828,0.009553909301757812,-0.09485900402069092
1707603292474001000,23.9360009765625,0.17551708221435547,0.030343055725097656,-0.31765347719192505
1707603292492894500,23.95489453125,-0.30982208251953125,0.18407058715820312,0.1925831139087677
1707603292511788000,23.9737880859375,-0.8404150009155273,0.41040706634521484,0.5694040656089783
1707603292530681600,23.992681640625,-0.920891284942627,0.41773033142089844,0.8242886662483215
1707603292549575200,24.0115751953125,0.04080677032470703,0.493624210357666,0.535465657711029
1707603292568468700,24.03046875,0.8167033195495605,-0.011914253234863281,0.13403749465942383
