time,seconds_elapsed,z,y,x
1707603296200760300,0.04176025390625,0,0,0
1707603296219654000,0.06065380859375,-0.23922348022460938,-0.04279947280883789,-0.1447555422782898
1707603296238547700,0.079547607421875,-0.09714841842651367,0.07791328430175781,-0.13654828071594238
1707603296257441300,0.098441162109375,0.32738494873046875,-0.23899030685424805,0.11255913972854614
1707603296276334800,0.1173349609375,0.5190205574035645,-0.31714630126953125,0.5916602611541748
1707603296295228400,0.136228515625,0.6649131774902344,-0.20203208923339844,0.7455148696899414
1707603296314122000,0.1551220703125,0.39968204498291016,-0.05353832244873047,1.1119886636734009
1707603296333015600,0.174015625,-0.04084014892578125,0.06460332870483398,1.0374523401260376
1707603296351909000,0.1929091796875,-0.0674581527709961,-0.10362863540649414,0.6424214243888855
1707603296370802700,0.211802734375,0.584141731262207,-0.11874628067016602,0.45409679412841797
1707603296389696300,0.2306962890625,0.7168970108032227,0.11976289749145508,1.3761569261550903
1707603296408589800,0.24958984375,0.4781179428100586,0.14377641677856445,1.8315010070800781
1707603296427483400,0.2684833984375,-0.38622570037841797,-0.2270040512084961,0.8293681144714355
1707603296446377200,0.287377197265625,-0.9316511154174805,-0.1049032211303711,-0.7530608177185059
1707603296465270500,0.3062705078125,-1.6627483367919922,0.07978439331054688,-0.5260329246520996
1707603296484164400,0.325164306640625,-1.6657476425170898,0.11481189727783203,-0.06998658180236816
1707603296503058000,0.344057861328125,-1.1342430114746094,0.1751117706298828,0.1247715950012207
1707603296521951500,0.362951416015625,-0.3264751434326172,0.23906612396240234,0.6966376304626465
1707603296540845000,0.381844970703125,-0.2341923713684082,0.36304616928100586,0.723670244216919
1707603296559738600,0.400738525390625,-1.0793919563293457,0.3069477081298828,0.2800612449645996
1707603296578632200,0.419632080078125,-1.2895474433898926,0.08914852142333984,-0.5790183544158936
1707603296597525800,0.43852587890625,-0.8638830184936523,-0.005421161651611328,-0.6007142066955566
1707603296616419300,0.45741943359375,-0.3749227523803711,-0.17091608047485352,-0.42508435249328613
1707603296635313000,0.47631298828125,0.1997065544128418,-0.306673526763916,-0.4815354347229004
1707603296654206700,0.495206787109375,0.4706997871398926,0.07438373565673828,0.3419148921966553
1707603296673100000,0.51410009765625,0.2253246307373047,0.5475029945373535,0.6104109287261963
1707603296691993900,0.532993896484375,0.255002498626709,0.25083017349243164,0.3736891746520996
1707603296710887400,0.551887451171875,-0.0352783203125,0.23969221115112305,0.17188549041748047
1707603296729780700,0.57078076171875,-0.14376211166381836,0.05297422409057617,-0.0634608268737793
1707603296748674600,0.589674560546875,0.2691507339477539,-0.11672019958496094,-0.48965978622436523
1707603296767568100,0.608568115234375,0.3673272132873535,-0.15228843688964844,-0.3234243392944336
1707603296786461700,0.627461669921875,-0.9059562683105469,0.6757473945617676,1.4370687007904053
1707603296805355300,0.646355224609375,-0.26959943771362305,0.3351731300354004,0.49904346466064453
1707603296824248800,0.665248779296875,-0.5207138061523438,-0.04619121551513672,-0.03436756134033203
1707603296843142400,0.684142333984375,-0.40818214416503906,-0.33837413787841797,-0.4633049964904785
1707603296862036000,0.703035888671875,-0.3005061149597168,-0.4601736068725586,-0.9211113452911377
1707603296880929500,0.721929443359375,0.05345439910888672,-0.7680387496948242,-1.2943270206451416
1707603296899823000,0.740822998046875,1.5328960418701172,-0.873112678527832,-0.6479651927947998
1707603296918717000,0.759717041015625,2.781932830810547,-1.3125486373901367,-0.5673391819000244
1707603296937610200,0.7786103515625,3.3781347274780273,-2.097777843475342,-1.3758575916290283
1707603296956504000,0.797504150390625,3.1325435638427734,-2.401576519012451,-1.4867968559265137
1707603296975397600,0.816397705078125,2.892141342163086,-2.93115234375,-2.113172769546509
1707603296994291200,0.835291259765625,3.126722812652588,-3.465505599975586,-2.6788434982299805
1707603297013184800,0.854184814453125,2.87406587600708,-3.3899571895599365,-2.3664498329162598
1707603297032078300,0.873078369140625,2.2544803619384766,-3.7828102111816406,-2.0730538368225098
1707603297050972000,0.891971923828125,2.0257716178894043,-3.3034794330596924,-1.5999798774719238
1707603297069865500,0.910865478515625,0.7161297798156738,-2.375826358795166,-1.1963391304016113
1707603297088759000,0.929759033203125,-1.991995096206665,-0.32640933990478516,0.3561868667602539
1707603297107652600,0.948652587890625,-3.8028218746185303,3.5807628631591797,3.8932485580444336
1707603297126546200,0.967546142578125,-6.148014068603516,7.548057556152344,6.298348903656006
1707603297145439700,0.986439697265625,-8.159632682800293,9.077136993408203,6.181582927703857
1707603297164333600,1.00533349609375,-10.159785270690918,7.036936283111572,4.717123508453369
1707603297183227100,1.02422705078125,-10.934617042541504,3.077864646911621,4.833736896514893
1707603297202120400,1.043120361328125,-9.03322696685791,-0.17211103439331055,4.773754119873047
1707603297221014300,1.06201416015625,-5.081117153167725,-3.768514633178711,5.144224643707275
1707603297239907800,1.080907958984375,4.953407287597656,-4.1291704177856445,4.53923225402832
1707603297258801400,1.099801513671875,6.934503555297852,-5.191763877868652,6.347896099090576
1707603297277695000,1.118695068359375,6.899799346923828,-5.845551013946533,5.081823348999023
1707603297296588500,1.137588623046875,5.387981414794922,-5.265285491943359,3.8527865409851074
1707603297315482000,1.156482177734375,4.456478118896484,-5.107226371765137,2.466066837310791
1707603297334375700,1.175375732421875,3.7195489406585693,-5.339284896850586,0.6125602722167969
1707603297353269200,1.194269287109375,2.7582125663757324,-5.345158100128174,-0.7336874008178711
1707603297372162800,1.213162841796875,1.8163349628448486,-5.302606582641602,-2.759613513946533
1707603297391056400,1.232056396484375,0.4401271343231201,-5.2982635498046875,-4.1609392166137695
1707603297409950000,1.250949951171875,-1.1248085498809814,-4.215354919433594,-5.158052444458008
1707603297428843800,1.26984375,-1.463057041168213,-1.6616697311401367,-3.827634334564209
1707603297447737300,1.2887373046875,-1.835294485092163,1.6599841117858887,-2.5864555835723877
1707603297466630700,1.307630615234375,-2.8615119457244873,3.740633487701416,-3.094865322113037
1707603297485524500,1.3265244140625,-3.8443171977996826,6.186351776123047,-2.752264976501465
1707603297504418000,1.34541796875,-4.927491664886475,7.43984317779541,-0.4658665657043457
1707603297523311600,1.3643115234375,-5.1025896072387695,6.781162261962891,-0.45958852767944336
1707603297542205200,1.383205078125,-4.647272109985352,5.122129440307617,-1.2533674240112305
1707603297561098800,1.4020986328125,-4.246784210205078,3.1349143981933594,-1.071173906326294
1707603297579992300,1.420992431640625,-2.524294376373291,1.0545568466186523,0.6849169731140137
1707603297598886000,1.439885986328125,-1.255115032196045,-0.8598842620849609,3.5562970638275146
1707603297617779500,1.458779541015625,0.8589885234832764,-3.2408785820007324,4.922294616699219
1707603297636673000,1.477673095703125,2.1518406867980957,-4.592286109924316,3.784827470779419
1707603297655566600,1.496566650390625,2.5875039100646973,-4.420879364013672,3.1777141094207764
1707603297674460200,1.515460205078125,1.8950928449630737,-5.272984981536865,1.4175879955291748
1707603297693354000,1.53435400390625,1.726231336593628,-5.592952251434326,-1.1744904518127441
1707603297712247600,1.55324755859375,1.1976215839385986,-5.323404312133789,-1.6805419921875
1707603297731140900,1.572140869140625,0.5654920339584351,-4.863410949707031,0.17017650604248047
1707603297750034700,1.59103466796875,0.8811869621276855,-4.822455406188965,-0.06814289093017578
1707603297768928300,1.60992822265625,2.0996804237365723,-3.182633876800537,-0.4698207378387451
1707603297787821800,1.62882177734375,1.574101448059082,0.34650611877441406,0.1853950023651123
1707603297806715400,1.64771533203125,-2.586813449859619,3.8809595108032227,-2.9354310035705566
1707603297825609000,1.66660888671875,-3.885114908218384,6.621384620666504,-4.7742018699646
1707603297844502500,1.68550244140625,-5.075636863708496,8.232314109802246,-4.394217491149902
1707603297863396000,1.70439599609375,-6.021631240844727,8.707500457763672,-2.0862061977386475
1707603297882289700,1.72328955078125,-8.260260581970215,6.706707954406738,1.0784345865249634
1707603297901183200,1.742183349609375,-8.436511993408203,3.6476173400878906,3.804279327392578
1707603297920076800,1.761076904296875,-5.879142761230469,0.26448631286621094,6.116454124450684
1707603297938970400,1.779970458984375,-2.6700196266174316,-4.080509185791016,7.247341156005859
1707603297957864000,1.798864013671875,0.007802188396453857,-7.3096818923950195,5.4192986488342285
1707603297976757800,1.8177578125,5.548434257507324,-8.38331413269043,1.3362269401550293
1707603297995651000,1.836651123046875,8.91520881652832,-8.386242866516113,-1.9283666610717773
1707603298014545000,1.855544921875,8.925710678100586,-8.612573623657227,-3.8012330532073975
1707603298033438500,1.8744384765625,7.616160869598389,-8.812368392944336,-4.639926433563232
1707603298052332000,1.89333203125,6.613417625427246,-9.023107528686523,-5.21967077255249
1707603298071225600,1.9122255859375,3.909757137298584,-8.898679733276367,-5.551958084106445
1707603298090119200,1.931119140625,-0.050034299492836,-4.814460277557373,-5.446386337280273
1707603298109012700,1.9500126953125,-3.238874912261963,1.2168159484863281,-4.592809677124023
1707603298127906300,1.96890625,-6.499738693237305,7.123656272888184,-1.8451564311981201
1707603298146799900,1.9877998046875,-8.775479316711426,11.707708358764648,1.1990125179290771
1707603298165693400,2.006693359375,-10.22420883178711,12.23720645904541,5.11886739730835
1707603298184587000,2.0255869140625,-10.622727394104004,8.958272933959961,7.936609268188477
1707603298203480600,2.04448046875,-7.579886436462402,4.876928329467773,7.768242359161377
1707603298222374100,2.0633740234375,-3.343341588973999,0.43108272552490234,6.127772331237793
1707603298241268000,2.08226806640625,0.8261711597442627,-3.1175923347473145,4.388296127319336
1707603298260161300,2.101161376953125,2.852517604827881,-6.2425031661987305,3.3312604427337646
1707603298279055000,2.12005517578125,4.468317031860352,-8.380376815795898,2.193392515182495
1707603298297948700,2.13894873046875,4.773056983947754,-9.603511810302734,0.34533095359802246
1707603298316842200,2.15784228515625,5.38704252243042,-11.033456802368164,-2.0991034507751465
1707603298335735800,2.17673583984375,6.209068298339844,-10.997882843017578,-4.253005504608154
1707603298354629400,2.19562939453125,5.935067176818848,-11.88509750366211,-6.4425787925720215
1707603298373523000,2.21452294921875,5.280278205871582,-12.602907180786133,-6.780570983886719
1707603298392416500,2.23341650390625,3.1977686882019043,-11.76528549194336,-6.436982154846191
1707603298411310000,2.25231005859375,-1.831181287765503,-8.388456344604492,-4.380880832672119
1707603298430203600,2.27120361328125,-8.144746780395508,-2.335672378540039,-1.7200865745544434
1707603298449097200,2.29009716796875,-12.39488697052002,4.40938663482666,0.828883171081543
1707603298467990800,2.30899072265625,-12.706768035888672,11.583072662353516,2.336534261703491
1707603298486884400,2.32788427734375,-11.519705772399902,15.440963745117188,0.3084111213684082
1707603298505778200,2.346778076171875,-11.67576789855957,15.399571418762207,-1.9400300979614258
1707603298524671500,2.36567138671875,-10.556718826293945,12.463953971862793,-1.95405912399292
1707603298543565000,2.38456494140625,-8.31346321105957,7.493005275726318,-0.7092442512512207
1707603298562459000,2.403458984375,-5.654938220977783,1.8055057525634766,1.333045482635498
1707603298581352400,2.4223525390625,-1.9139755964279175,-2.750861167907715,2.5871410369873047
1707603298600246000,2.44124609375,0.6892437934875488,-6.709092140197754,2.3773856163024902
1707603298619139600,2.4601396484375,1.9216902256011963,-10.594379425048828,1.476841926574707
1707603298638033200,2.479033203125,3.8599095344543457,-13.121301651000977,0.5133757591247559
1707603298656926700,2.4979267578125,6.648770332336426,-14.378825187683105,-2.5109925270080566
1707603298675820300,2.5168203125,8.308958053588867,-15.912424087524414,-3.21370792388916
1707603298694713900,2.5357138671875,9.027898788452148,-15.353612899780273,-3.039722442626953
1707603298713607400,2.554607421875,7.673227310180664,-14.202268600463867,-1.3701157569885254
1707603298732501000,2.5735009765625,3.0260796546936035,-11.73198413848877,1.6201896667480469
1707603298751394600,2.59239453125,-3.911520004272461,-4.963081359863281,5.004571437835693
1707603298770288000,2.6112880859375,-10.10334587097168,2.7559738159179688,3.1500487327575684
1707603298789181700,2.630181640625,-15.27899169921875,10.910261154174805,-0.47589921951293945
1707603298808075300,2.6490751953125,-18.479381561279297,16.84043312072754,-5.312629222869873
1707603298826969000,2.667968994140625,-17.916574478149414,17.68248176574707,-8.262701988220215
1707603298845862700,2.686862548828125,-13.907394409179688,14.256715774536133,-7.205267429351807
1707603298864756000,2.705755859375,-10.499974250793457,7.8860273361206055,-3.2597436904907227
1707603298883649800,2.72464990234375,-8.072978019714355,0.6897168159484863,0.7253003120422363
1707603298902543400,2.74354345703125,-4.861523151397705,-5.526229381561279,2.961684226989746
1707603298921437000,2.76243701171875,-1.4340651035308838,-11.293394088745117,1.9933838844299316
1707603298940330500,2.78133056640625,3.2012691497802734,-16.41585922241211,-0.7099142074584961
1707603298959224000,2.80022412109375,8.07955551147461,-17.96416664123535,-2.1098756790161133
1707603298978117600,2.81911767578125,12.024001121520996,-16.751846313476562,-1.324955940246582
1707603298997011200,2.83801123046875,13.573755264282227,-15.834388732910156,-0.45507144927978516
1707603299015904800,2.85690478515625,9.650954246520996,-15.739801406860352,-0.11804485321044922
1707603299034798300,2.87579833984375,2.902862787246704,-14.878042221069336,-0.6360807418823242
1707603299053692000,2.89469189453125,-3.0683462619781494,-10.633184432983398,-1.384537696838379
1707603299072585500,2.91358544921875,-10.165575981140137,-2.4154019355773926,-1.039745807647705
1707603299091479300,2.932479248046875,-16.687206268310547,7.142946243286133,-0.30533313751220703
1707603299110372900,2.951372802734375,-18.70027732849121,13.89900016784668,-2.9762706756591797
1707603299129266400,2.970266357421875,-15.099468231201172,17.663894653320312,-5.918645858764648
1707603299148160000,2.989159912109375,-11.247318267822266,16.27206802368164,-5.048630714416504
1707603299167053600,3.008053466796875,-8.998973846435547,11.85702133178711,-2.0426406860351562
1707603299185947100,3.026947021484375,-6.65535831451416,6.083898544311523,1.3177647590637207
1707603299204840700,3.0458408203125,-3.6514461040496826,0.04576730728149414,3.788816213607788
1707603299223734300,3.064734375,0.5125096440315247,-5.110726356506348,4.814797401428223
1707603299242627800,3.0836279296875,4.605179309844971,-9.435709953308105,5.043728828430176
1707603299261521400,3.102521484375,7.9497270584106445,-12.56810188293457,4.477805137634277
1707603299280415000,3.1214150390625,9.638175964355469,-14.227991104125977,2.218289852142334
1707603299299308500,3.14030859375,9.618353843688965,-15.343255996704102,-0.5089631080627441
1707603299318202000,3.1592021484375,6.822562217712402,-15.977156639099121,-1.571310043334961
1707603299337095700,3.178095703125,2.038109064102173,-15.136061668395996,-2.0329065322875977
1707603299355989500,3.196989501953125,-2.6048340797424316,-11.166831016540527,-3.571981430053711
1707603299374883000,3.215883056640625,-7.173986434936523,-5.371842861175537,-5.53757381439209
1707603299393776600,3.234776611328125,-11.555237770080566,1.9958724975585938,-5.540574073791504
1707603299412670200,3.253670166015625,-13.830066680908203,8.785740852355957,-4.565098762512207
1707603299431563800,3.272563720703125,-12.978874206542969,13.6222505569458,-4.102154731750488
1707603299450457300,3.291457275390625,-9.852265357971191,15.632556915283203,-3.3628387451171875
1707603299469351000,3.310350830078125,-7.443151473999023,14.550174713134766,-1.2274465560913086
1707603299488244500,3.329244384765625,-5.749538421630859,10.857625961303711,1.352487564086914
1707603299507138000,3.348137939453125,-5.09568977355957,5.492955684661865,3.1016573905944824
1707603299526031600,3.367031494140625,-3.8918280601501465,-0.3991274833679199,3.6576719284057617
1707603299544925200,3.38592529296875,-1.6673630475997925,-7.357719421386719,3.006737232208252
1707603299563818800,3.40481884765625,2.2457752227783203,-13.15052604675293,1.9903473854064941
1707603299582712300,3.42371240234375,6.49226188659668,-14.867931365966797,0.9547843933105469
1707603299601606000,3.44260595703125,9.691701889038086,-14.731375694274902,0.718174934387207
1707603299620499700,3.461499755859375,9.19955825805664,-14.558882713317871,0.6046905517578125
1707603299639393300,3.480393310546875,5.196169853210449,-14.382140159606934,-0.11600399017333984
1707603299658286800,3.499286865234375,1.1154533624649048,-12.989763259887695,-0.8997225761413574
1707603299677180400,3.518180419921875,-2.5833518505096436,-9.34960651397705,-2.703782558441162
1707603299696074000,3.537073974609375,-6.269858360290527,-3.8750550746917725,-4.1202073097229
1707603299714967600,3.555967529296875,-8.96877670288086,2.9860482215881348,-4.373965263366699
1707603299733861000,3.574861083984375,-10.060356140136719,10.447626113891602,-3.4150094985961914
1707603299752754700,3.593754638671875,-10.219956398010254,16.85022735595703,-1.015885353088379
1707603299771648300,3.612648193359375,-10.118608474731445,19.260501861572266,0.8919100761413574
1707603299790541800,3.631541748046875,-9.402044296264648,17.649505615234375,1.2870855331420898
1707603299809435400,3.650435302734375,-8.459288597106934,12.098672866821289,1.429697036743164
1707603299828329200,3.6693291015625,-6.158534049987793,4.664407253265381,1.948190689086914
1707603299847222500,3.688222412109375,-3.1125502586364746,-2.3231096267700195,2.232149124145508
1707603299866116400,3.707116455078125,0.07379882782697678,-8.621025085449219,2.263368606567383
1707603299885010000,3.726010009765625,3.6544783115386963,-13.32282829284668,2.33351469039917
1707603299903903500,3.744903564453125,6.691014289855957,-14.7186918258667,1.302107810974121
1707603299922797000,3.763797119140625,8.563568115234375,-14.502464294433594,0.09710407257080078
1707603299941690600,3.782690673828125,6.753089904785156,-14.840555191040039,-0.9055042266845703
1707603299960584200,3.801584228515625,2.745831251144409,-14.649585723876953,-2.6740493774414062
1707603299979477800,3.820477783203125,-1.3337597846984863,-12.303312301635742,-4.3375349044799805
1707603299998371300,3.839371337890625,-4.620554447174072,-7.680639266967773,-5.5470991134643555
1707603300017265000,3.858264892578125,-7.652368068695068,-1.3121929168701172,-5.989723205566406
1707603300036158500,3.877158447265625,-9.494489669799805,6.2643842697143555,-4.856452941894531
1707603300055052000,3.896052001953125,-9.288434982299805,13.74516487121582,-2.185704231262207
1707603300073945900,3.91494580078125,-7.943182945251465,18.16140365600586,0.9292078018188477
1707603300092839400,3.93383935546875,-6.755454063415527,18.01177215576172,3.490872383117676
1707603300111733000,3.95273291015625,-5.805031776428223,13.755239486694336,4.362819671630859
1707603300130626600,3.97162646484375,-4.034801959991455,7.272664546966553,4.205735683441162
1707603300149520100,3.99052001953125,-1.9754881858825684,0.5813007354736328,3.5379409790039062
1707603300168413700,4.00941357421875,0.2928101420402527,-4.992836952209473,3.042703151702881
1707603300187307300,4.028307373046875,2.4073431491851807,-9.138221740722656,2.804379463195801
1707603300206200800,4.047200927734375,4.701850891113281,-11.646292686462402,2.161304473876953
1707603300225094400,4.066094482421875,6.055362701416016,-12.927445411682129,0.5624556541442871
1707603300243988000,4.084988037109375,5.669511318206787,-13.672284126281738,-1.4803533554077148
1707603300262881500,4.103881591796875,3.409960985183716,-13.850435256958008,-3.9069666862487793
1707603300281775400,4.122775390625,0.5949431657791138,-13.076028823852539,-5.544930458068848
1707603300300668700,4.141668701171875,-2.1968255043029785,-10.298027038574219,-5.6597900390625
1707603300319562500,4.1605625,-4.948111057281494,-5.827455997467041,-4.8101091384887695
1707603300338456000,4.1794560546875,-7.5136799812316895,0.6829605102539062,-4.61799430847168
1707603300357349600,4.198349609375,-8.86267375946045,7.919085502624512,-3.9173545837402344
1707603300376243200,4.2172431640625,-8.35793685913086,14.205078125,-1.683248519897461
1707603300395136800,4.23613671875,-6.877151966094971,17.44124984741211,1.9660253524780273
1707603300414030300,4.2550302734375,-5.59273099899292,16.69536018371582,5.274013996124268
1707603300432924000,4.273923828125,-4.782283306121826,12.682284355163574,6.120763778686523
1707603300451817500,4.2928173828125,-3.226983070373535,6.934837818145752,4.817337989807129
1707603300470711300,4.311711181640625,-1.8306567668914795,1.2279319763183594,2.8112311363220215
1707603300489604600,4.3306044921875,-0.6361173391342163,-3.42029070854187,1.418351650238037
1707603300508498400,4.34949853515625,0.2697398364543915,-7.275970458984375,0.010744094848632812
1707603300527392000,4.36839208984375,1.7315807342529297,-10.294442176818848,-1.443079948425293
1707603300546285600,4.38728564453125,3.3579821586608887,-11.854736328125,-1.9981670379638672
1707603300565179100,4.40617919921875,4.547596454620361,-12.574016571044922,-2.656836986541748
1707603300584072700,4.42507275390625,4.260378837585449,-12.232035636901855,-3.5125789642333984
1707603300602966300,4.44396630859375,2.1225900650024414,-11.367036819458008,-3.7725839614868164
1707603300621859800,4.46285986328125,-0.6672170162200928,-9.277801513671875,-3.297018527984619
1707603300640753400,4.48175341796875,-3.230022668838501,-6.1150736808776855,-3.655590534210205
1707603300659647200,4.500647216796875,-4.851799964904785,-1.7104105949401855,-4.122174263000488
1707603300678540500,4.51954052734375,-5.652383327484131,4.3762288093566895,-4.255928039550781
1707603300697434400,4.538434326171875,-5.799631118774414,9.994725227355957,-2.377861976623535
1707603300716328000,4.557327880859375,-5.716346740722656,14.01687240600586,1.981173038482666
1707603300735221500,4.576221435546875,-5.965697288513184,14.652996063232422,5.888936519622803
1707603300754115000,4.595114990234375,-5.981243133544922,11.847050666809082,6.770602703094482
1707603300773008600,4.614008544921875,-3.9795148372650146,6.85828971862793,5.178563117980957
1707603300791902200,4.632902099609375,-1.4833840131759644,1.406294345855713,2.7761940956115723
1707603300810795800,4.651795654296875,0.5184488296508789,-3.2886266708374023,0.21647882461547852
1707603300829689300,4.670689453125,2.0432677268981934,-6.389946937561035,-1.5603656768798828
1707603300848583200,4.689583251953125,3.1840264797210693,-8.770549774169922,-1.5679397583007812
1707603300867476500,4.7084765625,4.459862232208252,-10.159087181091309,-2.2569870948791504
1707603300886370300,4.727370361328125,5.469693183898926,-10.536718368530273,-3.0728979110717773
1707603300905263900,4.746263916015625,5.433228492736816,-9.192290306091309,-4.350587844848633
1707603300924157400,4.765157470703125,2.174358606338501,-5.5452094078063965,-3.1223151683807373
1707603300943051000,4.784051025390625,-1.9890997409820557,-1.368490219116211,-0.671485424041748
1707603300961944600,4.802944580078125,-5.947144031524658,3.806509017944336,-0.7844789028167725
1707603300980838100,4.821838134765625,-8.570930480957031,8.196151733398438,-2.2888412475585938
1707603300999731700,4.840731689453125,-9.433833122253418,10.472454071044922,-1.8262441158294678
1707603301018625300,4.859625244140625,-9.224306106567383,9.241659164428711,0.5073983669281006
1707603301037519000,4.87851904296875,-7.401315689086914,5.659409523010254,3.073824405670166
1707603301056412400,4.897412353515625,-4.204668045043945,0.9217700958251953,4.540386199951172
1707603301075306200,4.91630615234375,-1.900626540184021,-4.619956970214844,4.653404235839844
1707603301094199800,4.93519970703125,3.579002857208252,-7.730154991149902,3.535017967224121
1707603301113093400,4.95409326171875,8.182988166809082,-9.221403121948242,2.282679319381714
1707603301131987000,4.972987060546875,11.73806095123291,-9.63151741027832,0.7091717720031738
1707603301150880500,4.991880615234375,11.883968353271484,-9.990411758422852,-1.1800622940063477
1707603301169774000,5.010774169921875,8.50631332397461,-10.290606498718262,-2.9194679260253906
1707603301188667600,5.029667724609375,3.7792229652404785,-9.9002046585083,-3.6663589477539062
1707603301207561200,5.048561279296875,-0.44749534130096436,-7.15659236907959,-2.3755128383636475
1707603301226455000,5.067455078125,-2.950701951980591,-3.56931209564209,-0.633535623550415
1707603301245348400,5.086348388671875,-4.634640216827393,0.31285667419433594,-0.08345270156860352
1707603301264242200,5.1052421875,-5.561229705810547,4.943586349487305,0.27104759216308594
1707603301283135700,5.1241357421875,-6.542407989501953,8.940632820129395,0.651017427444458
1707603301302029300,5.143029296875,-8.019969940185547,11.2271089553833,0.713148832321167
1707603301320923000,5.1619228515625,-9.463339805603027,10.816576957702637,0.03971242904663086
1707603301339816400,5.18081640625,-9.664234161376953,8.20739459991455,0.2609701156616211
1707603301358710000,5.1997099609375,-7.635570526123047,5.076621055603027,1.0713682174682617
1707603301377603600,5.218603515625,-4.930810928344727,1.4723100662231445,1.1474833488464355
1707603301396497400,5.237497314453125,-2.578026294708252,-2.1616220474243164,0.47607994079589844
1707603301415391000,5.256390869140625,-0.4017850160598755,-5.569199085235596,-0.6392035484313965
1707603301434284500,5.275284423828125,2.613154411315918,-7.709455490112305,-1.8957586288452148
1707603301453178000,5.29417822265625,5.513567924499512,-9.311795234680176,-1.8241291046142578
1707603301472071700,5.31307177734375,8.01915454864502,-10.570049285888672,-1.9041290283203125
1707603301490965200,5.33196533203125,8.781526565551758,-11.090350151062012,-1.5789742469787598
1707603301509858800,5.35085888671875,7.60770845413208,-10.33755874633789,-1.1850814819335938
1707603301528752400,5.36975244140625,4.500610828399658,-8.044594764709473,-0.017289400100708008
1707603301547646000,5.38864599609375,0.9193823337554932,-3.5481481552124023,0.17283034324645996
1707603301566539500,5.40753955078125,-3.5056252479553223,2.7813024520874023,0.5807318687438965
1707603301585433300,5.426433349609375,-8.762970924377441,9.31849193572998,0.2352447509765625
1707603301604327000,5.445326904296875,-11.977269172668457,13.287225723266602,-0.4103226661682129
1707603301623220500,5.464220458984375,-12.761472702026367,13.194113731384277,-0.34728002548217773
1707603301642114000,5.483114013671875,-10.4496488571167,9.845006942749023,0.10818290710449219
1707603301661007600,5.502007568359375,-7.3227009773254395,4.84112548828125,0.5224838256835938
1707603301679901200,5.520901123046875,-4.700301647186279,-1.0609683990478516,0.11522197723388672
1707603301698794800,5.539794677734375,-1.5597174167633057,-6.155735015869141,-0.7246956825256348
1707603301717688600,5.5586884765625,2.426316022872925,-9.25090217590332,-1.2217717170715332
1707603301736582000,5.577581787109375,6.206960678100586,-10.673677444458008,-1.6704058647155762
1707603301755475700,5.596475830078125,9.17619800567627,-11.246506690979004,-2.1988282203674316
1707603301774369300,5.615369384765625,9.655369758605957,-10.976162910461426,-2.7511472702026367
1707603301793262800,5.634262939453125,7.184047222137451,-10.473708152770996,-3.299121379852295
1707603301812156400,5.653156494140625,2.9188992977142334,-9.575014114379883,-3.035513162612915
1707603301831050000,5.672050048828125,-0.22261309623718262,-6.551614284515381,-1.5655477046966553
1707603301849943600,5.690943603515625,-3.3467607498168945,-1.2447996139526367,0.45276951789855957
1707603301868837000,5.709837158203125,-6.660881996154785,5.256120681762695,2.9013376235961914
1707603301887731000,5.72873095703125,-9.833879470825195,11.795687675476074,3.3457183837890625
1707603301906624500,5.74762451171875,-11.508527755737305,15.048833847045898,1.3105087280273438
1707603301925518000,5.76651806640625,-12.173588752746582,14.445191383361816,1.0582799911499023
1707603301944411600,5.78541162109375,-10.543441772460938,10.618911743164062,1.7634944915771484
1707603301963305200,5.80430517578125,-7.528233051300049,5.385828018188477,2.27616286277771
1707603301982198800,5.82319873046875,-5.36564302444458,-1.023695945739746,1.8736546039581299
1707603302001092400,5.84209228515625,-2.0314342975616455,-6.934669017791748,0.719567060470581
1707603302019986200,5.860986083984375,3.1508355140686035,-10.41100788116455,1.2857452630996704
1707603302038879500,5.87987939453125,8.171821594238281,-11.589338302612305,1.0199689865112305
1707603302057773300,5.898773193359375,10.61325454711914,-12.218194961547852,-1.2204248905181885
1707603302076667000,5.9176669921875,10.0576810836792,-12.93161392211914,-3.6264498233795166
1707603302095560400,5.936560546875,7.332554817199707,-12.108699798583984,-6.60106086730957
1707603302114454000,5.9554541015625,2.8231468200683594,-9.796707153320312,-8.081870079040527
1707603302133347600,5.97434765625,-1.6097476482391357,-6.667564868927002,-7.004487991333008
1707603302152241200,5.9932412109375,-5.1117753982543945,-2.782362937927246,-3.578610897064209
1707603302171134700,6.012134765625,-7.070124626159668,2.2102088928222656,0.7912695407867432
1707603302190028500,6.031028564453125,-7.453188896179199,8.655454635620117,5.033403396606445
1707603302208922000,6.049922119140625,-9.130047798156738,13.610860824584961,4.674106597900391
1707603302227815700,6.068815673828125,-12.004743576049805,14.482014656066895,2.8645272254943848
1707603302246709200,6.087709228515625,-12.920184135437012,11.597748756408691,0.27898597717285156
1707603302265602800,6.106602783203125,-10.606148719787598,6.9968461990356445,-0.21642589569091797
1707603302284496400,6.125496337890625,-7.937967300415039,0.9501972198486328,-0.6880645751953125
1707603302303390000,6.144389892578125,-4.1830525398254395,-5.536387920379639,0.06548380851745605
1707603302322283800,6.16328369140625,1.7997483015060425,-10.113786697387695,1.4981155395507812
1707603302341177300,6.18217724609375,8.603233337402344,-12.275250434875488,1.6384481191635132
1707603302360071000,6.20107080078125,12.666974067687988,-12.209778785705566,-0.2312685251235962
1707603302378964500,6.219964599609375,12.531867027282715,-11.571452140808105,-3.2470388412475586
1707603302397858000,6.238858154296875,8.754066467285156,-11.099677085876465,-5.883824348449707
1707603302416751600,6.257751708984375,4.1824564933776855,-9.587849617004395,-6.037680149078369
1707603302435645200,6.276645263671875,0.18342962861061096,-5.739482402801514,-1.301761507987976
1707603302454539000,6.2955390625,-3.522223472595215,-0.9732246398925781,3.492244005203247
1707603302473432600,6.3144326171875,-6.144547462463379,3.2068395614624023,4.688022613525391
1707603302492326100,6.333326171875,-6.874133586883545,7.420586585998535,4.791254997253418
1707603302511219700,6.3522197265625,-7.239394664764404,10.999698638916016,4.017091274261475
1707603302530113300,6.37111328125,-9.233728408813477,11.428322792053223,0.16560858488082886
1707603302549006800,6.3900068359375,-10.177175521850586,8.680169105529785,-2.154853343963623
1707603302567900400,6.408900390625,-8.123705863952637,5.23055362701416,-2.1877307891845703
1707603302586794000,6.4277939453125,-5.932684421539307,0.27529144287109375,-3.3479089736938477
1707603302605687800,6.446687744140625,-3.39544415473938,-5.384029388427734,-2.979397773742676
1707603302624581400,6.465581298828125,1.5628811120986938,-9.393832206726074,-0.9646035432815552
1707603302643522000,6.48452197265625,7.773828029632568,-10.559008598327637,-1.922013282775879
1707603302662368500,6.503368408203125,11.619138717651367,-9.844781875610352,-3.1108150482177734
1707603302681262000,6.522261962890625,10.944671630859375,-9.040970802307129,-3.599640130996704
1707603302700155600,6.54115576171875,6.488800525665283,-8.271201133728027,-2.7037041187286377
1707603302719049500,6.560049560546875,2.6412038803100586,-5.51207160949707,-0.38755643367767334
1707603302737943000,6.578943115234375,-0.6370781064033508,-0.9642858505249023,0.7370120286941528
1707603302756836600,6.597836669921875,-3.215458869934082,3.13907527923584,1.0871409177780151
1707603302775730200,6.616730224609375,-5.428112983703613,6.6870622634887695,6.324532508850098
1707603302794623700,6.635623779296875,-6.8096513748168945,9.688024520874023,5.885248184204102
1707603302813517300,6.654517333984375,-8.022088050842285,9.50561809539795,5.407212257385254
1707603302832411000,6.673410888671875,-8.82297134399414,7.096813201904297,4.686218738555908
1707603302851304400,6.692304443359375,-8.06554889678955,3.5767955780029297,3.43310546875
1707603302870198300,6.7111982421875,-6.068706512451172,-0.8600025177001953,1.6269583702087402
1707603302889091800,6.730091796875,-0.8414751887321472,-4.67476749420166,0.9331834316253662
1707603302907985400,6.7489853515625,4.346715927124023,-6.547055244445801,-0.4783346652984619
1707603302926879000,6.76787890625,7.930205345153809,-8.040812492370605,-2.0135767459869385
1707603302945772500,6.7867724609375,9.671321868896484,-8.403870582580566,-3.648045778274536
1707603302964666000,6.805666015625,7.7065324783325195,-8.396754264831543,-5.586562156677246
1707603302983560000,6.824559814453125,4.356447219848633,-8.16705322265625,-7.0171661376953125
1707603303002453500,6.84345361328125,0.809114396572113,-7.432580471038818,-6.598563194274902
1707603303021347000,6.86234716796875,-1.2841769456863403,-4.778489112854004,-2.33390474319458
1707603303040240600,6.88124072265625,-1.450779676437378,0.6197957992553711,3.52014422416687
1707603303059134200,6.90013427734375,-1.6250892877578735,6.873726844787598,7.27877140045166
1707603303078027800,6.91902783203125,-5.704587459564209,8.703998565673828,6.385570049285889
1707603303096921300,6.93792138671875,-7.916924476623535,9.403632164001465,4.0098114013671875
1707603303115815200,6.956815185546875,-8.746644020080566,9.155733108520508,2.5087270736694336
1707603303134708700,6.975708740234375,-9.00136947631836,6.164279937744141,0.9426374435424805
1707603303153602300,6.994602294921875,-7.8302435874938965,2.678145408630371,0.10447311401367188
1707603303172496000,7.013495849609375,-6.614107131958008,-1.4957513809204102,-1.2098186016082764
1707603303191389400,7.032389404296875,-2.7396254539489746,-5.883640766143799,-1.3401180505752563
1707603303210283000,7.051282958984375,3.61430025100708,-8.371785163879395,-2.0929746627807617
1707603303229176600,7.070176513671875,9.346943855285645,-9.31439208984375,-1.944666862487793
1707603303248070400,7.0890703125,11.126877784729004,-9.409835815429688,-0.9618655443191528
1707603303266964000,7.1079638671875,8.54354476928711,-9.15268325805664,-2.615983009338379
1707603303285857500,7.126857421875,4.867025852203369,-8.774212837219238,-4.299691200256348
1707603303304751000,7.145751220703125,1.7614048719406128,-7.797962665557861,-4.6113128662109375
1707603303323644700,7.164644775390625,-0.1659311056137085,-3.493192672729492,-1.1834416389465332
1707603303342538200,7.183538330078125,-0.24070250988006592,3.742023468017578,4.726247310638428
1707603303361432000,7.20243212890625,-3.9292516708374023,8.306985855102539,6.494174480438232
1707603303380325600,7.22132568359375,-7.350803852081299,10.172422409057617,4.9067277908325195
1707603303399219200,7.24021923828125,-8.67041015625,10.150754928588867,3.331244468688965
1707603303418112800,7.25911279296875,-9.28675365447998,7.30717658996582,1.843963384628296
1707603303437006300,7.27800634765625,-7.789449691772461,4.29287052154541,1.9142954349517822
1707603303455900000,7.29689990234375,-6.199338912963867,1.1478452682495117,2.9150476455688477
1707603303474793700,7.315793701171875,-4.148193359375,-2.3911542892456055,2.9381041526794434
1707603303493687300,7.334687255859375,-0.34638941287994385,-5.438199996948242,0.590381383895874
1707603303512580900,7.353580810546875,3.9644575119018555,-7.615791320800781,-1.7705358266830444
1707603303531474400,7.372474365234375,8.005207061767578,-8.788434982299805,-2.995145320892334
1707603303550368000,7.391367919921875,10.336028099060059,-9.002758979797363,-3.797560214996338
1707603303569261800,7.41026171875,9.07847785949707,-8.939023971557617,-4.619904518127441
1707603303588155400,7.4291552734375,5.6354289054870605,-8.114758491516113,-5.256065368652344
1707603303607049000,7.448049072265625,2.3259003162384033,-5.960053443908691,-3.689232110977173
1707603303625942500,7.466942626953125,0.3649320602416992,-2.345208168029785,0.07364869117736816
1707603303644836000,7.485836181640625,-2.147887706756592,3.139277458190918,4.2421464920043945
1707603303663729700,7.504729736328125,-5.013350963592529,7.127385139465332,5.943317413330078
1707603303682623500,7.52362353515625,-7.144698619842529,9.645426750183105,5.74722957611084
1707603303701517000,7.54251708984375,-7.65058708190918,10.002413749694824,4.596404552459717
1707603303720410600,7.56141064453125,-7.968421936035156,7.410503387451172,3.4690089225769043
1707603303739304200,7.58030419921875,-7.407303810119629,4.407318115234375,2.2935097217559814
1707603303758197800,7.59919775390625,-7.378505229949951,0.15697956085205078,1.371969223022461
1707603303777091300,7.61809130859375,-5.632315158843994,-2.920241355895996,0.3137943744659424
1707603303795985200,7.636985107421875,-2.7295498847961426,-4.67604398727417,-2.1041014194488525
1707603303814878700,7.655878662109375,0.6348598003387451,-5.554283618927002,-4.478889465332031
1707603303833772300,7.674772216796875,4.002495765686035,-5.839757442474365,-5.788509368896484
1707603303852665900,7.693665771484375,5.342738628387451,-6.225361347198486,-5.956722259521484
1707603303871559400,7.712559326171875,5.201385498046875,-6.1871337890625,-5.493491172790527
1707603303890453000,7.731452880859375,4.7034149169921875,-6.094934463500977,-5.824711322784424
1707603303909346800,7.750346923828125,3.900400400161743,-5.485320091247559,-5.53902006149292
1707603303928240400,7.769240478515625,2.5862860679626465,-3.451725959777832,-3.131159782409668
1707603303947134000,7.788134033203125,0.28090161085128784,0.7285141944885254,1.7807097434997559
1707603303966027500,7.807027587890625,-2.1403706073760986,5.048806667327881,6.666759014129639
1707603303984921000,7.825921142578125,-4.536334991455078,6.912091255187988,9.287206649780273
1707603304003814700,7.844814697265625,-5.769996166229248,6.813681125640869,10.286514282226562
1707603304022708500,7.86370849609375,-5.751743793487549,5.331559181213379,10.04310417175293
1707603304041602000,7.88260205078125,-4.745400905609131,2.201230525970459,8.092202186584473
1707603304060495600,7.90149560546875,-2.3073952198028564,-0.9518404006958008,5.508670806884766
1707603304079389200,7.92038916015625,0.7455528974533081,-3.192352771759033,2.3418869972229004
1707603304098282800,7.93928271484375,2.658792018890381,-5.468918800354004,-1.3841309547424316
1707603304117176300,7.95817626953125,4.762536525726318,-6.342665672302246,-4.739325046539307
1707603304136070100,7.977070068359375,5.9759016036987305,-5.343056678771973,-6.606281280517578
1707603304154963700,7.995963623046875,5.081188201904297,-5.393987655639648,-6.0777106285095215
1707603304173857300,8.014857177734376,3.725515365600586,-5.27302360534668,-6.088068008422852
1707603304192750800,8.033750732421876,2.321223258972168,-5.265530586242676,-7.5268354415893555
1707603304211644700,8.052644775390625,0.6605814695358276,-4.367956161499023,-6.818713665008545
1707603304230538200,8.071538330078125,-0.9349499940872192,-2.4797472953796387,-3.649986743927002
1707603304249431800,8.090431884765625,-2.137509822845459,0.6361522674560547,1.0963311195373535
1707603304268325400,8.109325439453125,-3.6424288749694824,4.448126792907715,5.4895405769348145
1707603304287219000,8.128218994140624,-5.388091564178467,7.421630859375,7.834770202636719
1707603304306112500,8.147112548828124,-6.437963008880615,8.056387901306152,8.276657104492188
1707603304325006300,8.16600634765625,-6.116354465484619,6.652830600738525,7.999353885650635
1707603304343900000,8.18489990234375,-5.133857727050781,4.206371307373047,7.5834245681762695
1707603304362793500,8.20379345703125,-3.91406512260437,1.0514073371887207,6.398149013519287
1707603304381687000,8.22268701171875,-2.2615957260131836,-2.6704702377319336,3.8166069984436035
1707603304400580600,8.24158056640625,0.5966649651527405,-5.091859817504883,0.7622723579406738
1707603304419474200,8.26047412109375,3.414461851119995,-5.414081573486328,-3.030064582824707
1707603304438368000,8.279367919921874,4.189925670623779,-5.342097282409668,-6.103756904602051
1707603304457261600,8.298261474609374,3.6597540378570557,-5.5200324058532715,-7.57473611831665
1707603304476155100,8.317155029296876,2.5509185791015625,-5.558636665344238,-7.418687343597412
1707603304495048700,8.336048583984375,2.042895793914795,-5.158330917358398,-7.6451616287231445
1707603304513942300,8.3549423828125,1.7096068859100342,-4.489331245422363,-7.098698616027832
1707603304532836000,8.373836181640625,0.8357032537460327,-2.952402114868164,-5.069192409515381
1707603304551729700,8.392729736328125,1.0843909978866577,-0.24337244033813477,-1.6498994827270508
1707603304570623200,8.411623291015625,4.466493606567383,2.057023048400879,2.79581356048584
1707603304589516800,8.430516845703124,3.958932399749756,3.6064586639404297,7.563691139221191
1707603304608410600,8.44941064453125,-1.3930673599243164,3.546774387359619,4.34296989440918
1707603304627304200,8.46830419921875,-3.1701295375823975,3.8213305473327637,4.089316368103027
1707603304646197800,8.48719775390625,-3.9598000049591064,2.854032039642334,4.274402618408203
1707603304665091300,8.50609130859375,-4.933689594268799,1.1884684562683105,2.378272533416748
1707603304683985000,8.52498486328125,-5.9995856285095215,-0.6849470138549805,0.28324031829833984
1707603304702878500,8.54387841796875,-4.629838943481445,-1.4297080039978027,-0.2579355239868164
1707603304721772300,8.562772216796875,-0.8393111228942871,-2.0699424743652344,0.5101218223571777
1707603304740665900,8.581665771484374,0.1855158805847168,-2.7185330390930176,1.1336536407470703
1707603304759559400,8.600559326171876,0.33507418632507324,-1.919691562652588,0.40416860580444336
1707603304778453000,8.619452880859376,-0.02779865264892578,-1.7808704376220703,1.6314587593078613
1707603304797346600,8.6383466796875,-1.529786467552185,-0.7124514579772949,0.32219934463500977
1707603304816240400,8.657240478515625,-1.0059618949890137,-0.5153160095214844,0.5308995246887207
1707603304835134000,8.676134033203125,5.217226028442383,-0.6449341773986816,0.9393973350524902
1707603304854027500,8.695027587890625,4.124645709991455,-0.22568225860595703,0.7475090026855469
1707603304872921000,8.713921142578124,3.697115421295166,0.07475137710571289,0.1300983428955078
1707603304891814700,8.732814697265624,1.2262146472930908,0.44735193252563477,-1.445988655090332
1707603304910708500,8.75170849609375,0.0481572151184082,0.1419539451599121,-0.4067721366882324
1707603304929602000,8.77060205078125,-0.20334768295288086,1.2926850318908691,0.3792262077331543
1707603304948495600,8.78949560546875,-0.35803961753845215,1.5127043724060059,1.697206974029541
1707603304967389200,8.80838916015625,-0.7319827079772949,1.04915189743042,2.290036201477051
1707603304986283000,8.827282958984375,-1.117292881011963,0.8544754981994629,2.030351161956787
1707603305005176600,8.846176513671875,-1.5120136737823486,0.16181468963623047,1.4372477531433105
1707603305024070100,8.865070068359374,-1.2997181415557861,-0.2367267608642578,0.1132969856262207
1707603305042963700,8.883963623046874,-1.3800938129425049,-0.3657956123352051,-0.3743710517883301
1707603305061857300,8.902857177734376,-1.0094411373138428,-0.004401206970214844,-0.004852771759033203
1707603305080750800,8.921750732421875,-0.11083412170410156,0.1547412872314453,-0.4192495346069336
1707603305099644700,8.940644775390625,-0.4810056686401367,-0.07313013076782227,-0.49762868881225586
1707603305118538200,8.959538330078125,-0.030590295791625977,-0.04128599166870117,-1.0286567211151123
1707603305137431800,8.978431884765625,0.4448237419128418,0.07866811752319336,-0.7121739387512207
1707603305156325400,8.997325439453125,0.3184351921081543,-0.4369363784790039,0.06234169006347656
1707603305175219200,9.01621923828125,-0.2654235363006592,-1.1459732055664062,-0.6247010231018066
1707603305194112800,9.03511279296875,0.1369037628173828,-1.787217617034912,1.4122824668884277
1707603305213006300,9.05400634765625,-0.2260434627532959,0.40086793899536133,-0.6017317771911621
1707603305231900000,9.07289990234375,-1.7375996112823486,1.6935086250305176,-1.0533695220947266
1707603305250793500,9.09179345703125,0.6659080982208252,1.865321159362793,-1.307680606842041
1707603305269687000,9.11068701171875,2.8722262382507324,1.5877165794372559,-0.8817119598388672
1707603305288580900,9.129580810546875,2.6436917781829834,1.567784309387207,-0.6007742881774902
1707603305307474400,9.148474365234375,1.7064235210418701,2.9245262145996094,-0.3508129119873047
1707603305326368000,9.167367919921874,0.5817363262176514,4.954738140106201,-0.5252518653869629
1707603305345261600,9.186261474609376,1.3877949714660645,6.84821081161499,-1.1308403015136719
1707603305364155400,9.2051552734375,-1.2775204181671143,4.358185291290283,0.9844555854797363
1707603305383049000,9.224049072265625,-3.074211835861206,-0.9052824974060059,7.407133102416992
1707603305401942500,9.242942626953125,-2.4319875240325928,1.7014245986938477,-1.6432795524597168
1707603305420836000,9.261836181640625,-3.2684388160705566,-0.4830794334411621,-1.5377955436706543
1707603305439729700,9.280729736328125,-2.645787239074707,-3.495643138885498,-0.7141456604003906
1707603305458623500,9.29962353515625,-0.1036374568939209,-5.346632957458496,-1.1290607452392578
1707603305477517000,9.31851708984375,1.6585524082183838,-6.297961235046387,-2.3182787895202637
1707603305496410600,9.33741064453125,2.927215814590454,-6.609169006347656,-1.4139599800109863
1707603305515304200,9.35630419921875,3.228367328643799,-6.88383150100708,1.0602326393127441
1707603305534198000,9.375197998046875,1.2076151371002197,-6.679309844970703,2.670508861541748
1707603305553091600,9.394091552734375,-1.6826603412628174,-5.081259250640869,1.2299180030822754
1707603305571985200,9.412985107421875,-1.7370482683181763,-0.5337672233581543,-1.1463780403137207
1707603305590878700,9.431878662109375,-0.5594339370727539,5.599032878875732,-0.5767645835876465
1707603305609772300,9.450772216796874,-0.7570910453796387,8.828167915344238,0.7019815444946289
1707603305628666000,9.469666015625,-2.1053390502929688,9.236811637878418,1.7686858177185059
1707603305647559700,9.4885595703125,-2.6399435997009277,8.3515625,1.8089079856872559
1707603305666453200,9.507453369140626,-2.227151870727539,6.900503635406494,1.0797615051269531
1707603305685346800,9.526346923828125,-1.3850609064102173,4.0195441246032715,-0.4203305244445801
1707603305704240400,9.545240478515625,0.43674492835998535,-0.7191061973571777,-2.6410770416259766
1707603305723134200,9.56413427734375,3.6070139408111572,-5.858206272125244,-4.078947067260742
1707603305742027800,9.58302783203125,5.687148571014404,-10.15351676940918,-4.162013053894043
1707603305760921300,9.60192138671875,5.820068836212158,-13.140323638916016,-2.465488910675049
1707603305779815000,9.62081494140625,4.414523124694824,-14.183494567871094,-0.3826885223388672
1707603305798708700,9.639708740234376,2.871203899383545,-12.125144958496094,0.015847206115722656
1707603305817602300,9.658602294921875,0.791620135307312,-8.50394344329834,-0.11981821060180664
1707603305836496000,9.677495849609375,-1.818313479423523,-4.3053765296936035,-0.027830123901367188
1707603305855389400,9.696389404296875,-2.6786208152770996,0.24333906173706055,0.5101962089538574
1707603305874283000,9.715282958984375,-4.27103328704834,5.042393207550049,1.1580047607421875
1707603305893176600,9.734176513671875,-5.953049659729004,9.506437301635742,1.8544135093688965
1707603305912070400,9.7530703125,-8.290096282958984,11.555208206176758,2.4597644805908203
1707603305930964000,9.7719638671875,-9.136590003967285,11.832845687866211,2.8320116996765137
1707603305949857500,9.790857421875,-8.434557914733887,10.548713684082031,1.6542620658874512
1707603305968751000,9.809751220703125,-6.882101058959961,8.370491981506348,-0.1671137809753418
1707603305987645000,9.82864501953125,-4.38760232925415,5.3618693351745605,-2.415954113006592
1707603306006538500,9.84753857421875,-1.8603075742721558,1.4350528717041016,-3.9106221199035645
1707603306025432000,9.86643212890625,1.1908798217773438,-3.4043312072753906,-5.059741020202637
1707603306044325600,9.88532568359375,4.156872749328613,-8.972728729248047,-4.020514011383057
1707603306063219200,9.90421923828125,7.021853923797607,-13.375432968139648,-0.8295822143554688
1707603306082113000,9.923113037109376,8.272439002990723,-15.922706604003906,2.0802483558654785
1707603306101006600,9.942006591796876,7.042158126831055,-16.9728946685791,4.242553234100342
1707603306119900200,9.960900146484375,2.906506061553955,-14.272714614868164,2.5610756874084473
1707603306138793700,9.979793701171875,0.59600830078125,-8.506817817687988,0.7772049903869629
1707603306157687600,9.9986875,-4.469837188720703,-1.1504850387573242,-0.7867069244384766
1707603306176581000,10.0175810546875,-5.470363616943359,6.4030680656433105,-1.4491043090820312
1707603306195474700,10.036474609375,-7.513045310974121,10.283060073852539,-0.13064241409301758
1707603306214368300,10.0553681640625,-9.487430572509766,12.018695831298828,1.5795841217041016
1707603306233262000,10.074261962890626,-9.2117338180542,12.213702201843262,0.9899024963378906
1707603306252155600,10.09315576171875,-9.436821937561035,11.519815444946289,-0.24457693099975586
1707603306271049200,10.11204931640625,-7.869384765625,8.775798797607422,-3.548272132873535
1707603306289942800,10.13094287109375,-2.5190134048461914,4.826249122619629,-4.572057247161865
1707603306308836400,10.14983642578125,2.7496235370635986,-0.21697187423706055,-4.784531593322754
1707603306327730200,10.168730224609375,6.029338836669922,-5.3544793128967285,-4.193508148193359
1707603306346623700,10.187623779296874,7.5182719230651855,-9.699298858642578,-1.848696231842041
1707603306365517300,10.206517333984374,8.101801872253418,-12.906538009643555,1.184495449066162
1707603306384411000,10.225410888671876,8.208212852478027,-15.183496475219727,3.249605178833008
1707603306403304400,10.244304443359376,6.4905571937561035,-15.137439727783203,3.47025728225708
1707603306422198300,10.2631982421875,3.3708107471466064,-11.978779792785645,2.9492807388305664
1707603306441091800,10.282091796875,-2.040407419204712,-5.881546974182129,0.9528384208679199
1707603306459985400,10.3009853515625,-6.883608341217041,1.5203218460083008,-0.6506123542785645
1707603306478879000,10.31987890625,-9.382513046264648,8.89261245727539,0.9419407844543457
1707603306497772800,10.338772705078124,-11.085919380187988,12.860074996948242,2.4693708419799805
1707603306516666400,10.357666259765624,-10.935059547424316,13.751852035522461,2.0417428016662598
1707603306535560000,10.376559814453126,-8.942928314208984,12.910080909729004,-0.29703330993652344
1707603306554453500,10.39545361328125,-6.009148120880127,10.606879234313965,-2.619248628616333
1707603306573347300,10.414347412109375,-2.974846363067627,7.210300445556641,-4.537775993347168
1707603306592241000,10.433240966796875,-0.3508729934692383,3.1731033325195312,-5.238348007202148
1707603306611134500,10.452134521484375,1.557023286819458,-1.3937993049621582,-4.551847457885742
1707603306630028000,10.471028076171875,3.5591113567352295,-6.011368274688721,-3.515103816986084
1707603306648921900,10.489921875,5.14630126953125,-9.691081047058105,-1.7329440116882324
1707603306667815400,10.5088154296875,5.821783542633057,-12.273675918579102,0.6612648963928223
1707603306686709000,10.527708984375,5.377362251281738,-14.629793167114258,3.3788986206054688
1707603306705602600,10.5466025390625,4.231499671936035,-15.680573463439941,5.484378814697266
1707603306724496100,10.56549609375,2.5722033977508545,-13.99596118927002,5.123537063598633
1707603306743390000,10.584389892578125,0.49351537227630615,-9.971769332885742,3.253528594970703
1707603306762283500,10.603283447265625,-1.7277733087539673,-3.8666930198669434,1.0082578659057617
1707603306781177000,10.622177001953125,-5.802865982055664,3.2786951065063477,-1.6324183940887451
1707603306800070700,10.641070556640624,-7.89666223526001,10.085247039794922,-2.579392433166504
1707603306818964500,10.659964599609374,-8.933337211608887,14.467561721801758,-1.0928874015808105
1707603306837858000,10.678858154296876,-9.257076263427734,16.000614166259766,-1.3051104545593262
1707603306856751600,10.697751708984375,-8.118461608886719,15.105120658874512,-3.132035970687866
1707603306875645200,10.716645263671875,-6.35400915145874,11.5181884765625,-4.381782054901123
1707603306894539000,10.7355390625,-3.9343464374542236,6.421059608459473,-4.463316440582275
1707603306913432600,10.7544326171875,-0.9579331278800964,0.5059428215026855,-4.000564098358154
1707603306932326100,10.773326171875,2.1684603691101074,-6.803799629211426,-3.211703300476074
1707603306951219700,10.7922197265625,5.558891296386719,-13.434125900268555,-0.4286355972290039
1707603306970113500,10.811113525390626,7.560036659240723,-17.551170349121094,3.0608630180358887
1707603306989007000,10.830007080078126,8.66618824005127,-19.467567443847656,6.061480522155762
1707603307007900700,10.848900634765625,6.739038467407227,-19.059368133544922,6.428915023803711
1707603307026794200,10.867794189453125,2.0992064476013184,-13.847445487976074,3.0577988624572754
1707603307045687800,10.886687744140625,-2.1842148303985596,-5.5585036277771,-0.27188825607299805
1707603307064581600,10.90558154296875,-6.111675262451172,3.619771957397461,-2.987330913543701
1707603307083475200,10.92447509765625,-8.240614891052246,10.429988861083984,-2.8965845108032227
1707603307102368800,10.94336865234375,-8.679525375366211,15.176741600036621,-1.6323561668395996
1707603307121262300,10.962262451171876,-7.947325229644775,17.347049713134766,-2.326528549194336
1707603307140156200,10.98115625,-6.89553165435791,15.841790199279785,-4.022810935974121
1707603307159049700,11.0000498046875,-5.151928424835205,11.696022033691406,-4.819205284118652
1707603307177943300,11.018943359375,-2.7925846576690674,6.802552223205566,-4.645273208618164
1707603307196836900,11.0378369140625,-0.7477583885192871,1.6996679306030273,-3.8665971755981445
1707603307215730400,11.05673046875,1.1944682598114014,-4.211035251617432,-2.701406240463257
1707603307234624300,11.075624267578124,3.5007872581481934,-9.4124755859375,-0.9849300384521484
1707603307253517800,11.094517822265624,5.0737385749816895,-12.578832626342773,1.6607894897460938
1707603307272411400,11.113411376953126,5.250206470489502,-14.215527534484863,3.954705238342285
1707603307291305000,11.132304931640626,4.432893753051758,-14.732179641723633,5.297885417938232
1707603307310198800,11.15119873046875,2.903970718383789,-13.842647552490234,5.180544853210449
1707603307329092400,11.17009228515625,1.4987716674804688,-11.067628860473633,3.9457507133483887
1707603307347986000,11.18898583984375,-0.449288010597229,-7.070561408996582,1.8399944305419922
1707603307366879500,11.20787939453125,-3.6705431938171387,-1.1410298347473145,-0.2245163917541504
1707603307385773300,11.226773193359374,-7.456467151641846,5.758333206176758,-1.593921184539795
1707603307404667000,11.2456669921875,-10.468367576599121,11.781745910644531,-0.28369855880737305
1707603307423560400,11.264560546875,-11.57359790802002,14.869383811950684,0.6800417900085449
1707603307442454300,11.283454345703126,-10.076247215270996,16.465824127197266,-0.18935680389404297
1707603307461347800,11.302347900390625,-8.550683975219727,14.517420768737793,-2.925536632537842
1707603307480241400,11.321241455078125,-5.887431621551514,9.506891250610352,-4.933961391448975
1707603307499135000,11.340135009765625,-2.4389290809631348,3.502378463745117,-6.100105285644531
1707603307518028500,11.359028564453125,1.2883105278015137,-2.4091854095458984,-5.779346466064453
1707603307536922400,11.37792236328125,4.239882469177246,-8.226859092712402,-4.148858070373535
1707603307555816000,11.39681591796875,6.276178359985352,-13.163507461547852,-1.518538475036621
1707603307574709500,11.41570947265625,7.284092903137207,-16.98603057861328,1.6387758255004883
1707603307593603000,11.43460302734375,7.061163902282715,-18.085399627685547,4.917510032653809
1707603307612497000,11.453496826171875,4.765705108642578,-16.841012954711914,7.831212997436523
1707603307631390500,11.472390380859375,0.0966876745223999,-14.318249702453613,6.453492164611816
1707603307650284000,11.491283935546875,-3.2661631107330322,-8.653155326843262,2.6196866035461426
1707603307669177600,11.510177490234375,-5.885199546813965,-0.4757537841796875,-0.19960355758666992
1707603307688071400,11.529071533203124,-8.410039901733398,7.008133411407471,-0.7864542007446289
1707603307706965000,11.547965087890624,-9.757451057434082,12.658870697021484,0.7942728996276855
1707603307725858600,11.566858642578126,-8.734267234802246,15.266006469726562,1.1181354522705078
1707603307744752000,11.585752197265625,-6.8984599113464355,15.991084098815918,-1.9995651245117188
1707603307763646000,11.60464599609375,-4.9154205322265625,13.560848236083984,-5.368069648742676
1707603307782539500,11.62353955078125,-2.5457019805908203,8.769664764404297,-6.218474864959717
1707603307801433000,11.64243310546875,-0.39702141284942627,3.7481117248535156,-5.177454471588135
1707603307820326700,11.66132666015625,0.9144861698150635,-0.9270110130310059,-4.189291954040527
1707603307839220500,11.680220458984374,1.758681058883667,-5.215341091156006,-2.6842288970947266
1707603307858114000,11.699114013671876,2.853879690170288,-9.027708053588867,-1.1281390190124512
1707603307877007600,11.718007568359376,3.999356746673584,-11.550737380981445,1.1708855628967285
1707603307895901200,11.736901123046875,5.131725788116455,-13.158187866210938,3.2008209228515625
1707603307914795000,11.755794921875,4.6068034172058105,-13.695650100708008,4.4714674949646
1707603307933688600,11.7746884765625,2.5658211708068848,-12.141414642333984,3.8045873641967773
1707603307952582100,11.79358203125,-0.04086482524871826,-9.300542831420898,2.3384885787963867
1707603307971475700,11.812475830078125,-1.0680550336837769,-5.748187065124512,1.468738079071045
1707603307990369500,11.83136962890625,-2.632098436355591,-0.2127523422241211,0.03343534469604492
1707603308009263000,11.85026318359375,-5.09750509262085,7.314932823181152,-1.7239208221435547
1707603308028156700,11.86915673828125,-6.960071086883545,13.012740135192871,-1.5484633445739746
1707603308047050200,11.88805029296875,-8.471944808959961,14.901765823364258,-0.9270825386047363
1707603308065944000,11.906944091796875,-7.66630744934082,14.473752975463867,-1.430093765258789
1707603308084837600,11.925837646484375,-6.463122367858887,11.27597427368164,-2.348917007446289
1707603308103731200,11.944731201171875,-4.771773338317871,6.359451770782471,-2.8294806480407715
1707603308122624800,11.963624755859374,-2.510345220565796,0.7963624000549316,-3.4714627265930176
1707603308141518600,11.9825185546875,0.41856157779693604,-4.828721046447754,-3.048394203186035
1707603308160412200,12.001412109375,3.1675949096679688,-9.979520797729492,-1.6541438102722168
1707603308179305700,12.0203056640625,5.257104873657227,-13.128313064575195,0.7277383804321289
1707603308198199300,12.03919921875,6.108696937561035,-14.566415786743164,3.1622872352600098
1707603308217093000,12.058093017578125,5.334816932678223,-14.2262544631958,5.0605149269104
1707603308254880300,12.09588037109375,0.07596337795257568,-9.653078079223633,1.785975456237793
1707603308273773800,12.11477392578125,-2.0493500232696533,-3.999563455581665,0.5090370178222656
1707603308292667600,12.133667724609374,-4.788247108459473,2.793673038482666,0.5962328910827637
1707603308311561200,12.152561279296876,-6.648477554321289,9.486623764038086,1.5380115509033203
1707603308330454800,12.171454833984376,-7.785440444946289,13.941092491149902,0.8451390266418457
1707603308349348400,12.190348388671875,-7.926685333251953,15.410576820373535,-0.5303068161010742
1707603308368242200,12.2092421875,-6.601160526275635,14.145340919494629,-1.4116439819335938
1707603308387135700,12.2281357421875,-5.102031230926514,10.109888076782227,-2.0850439071655273
1707603308406029300,12.247029296875,-3.046187400817871,4.990814685821533,-2.665576457977295
1707603308424923000,12.2659228515625,-0.5844618082046509,-0.18894004821777344,-3.340716600418091
1707603308443816700,12.284816650390624,2.173779010772705,-5.026300430297852,-3.431339740753174
1707603308462710300,12.303710205078126,5.051884651184082,-8.890519142150879,-3.559028148651123
1707603308481603800,12.322603759765625,6.218600749969482,-11.971429824829102,-1.7198281288146973
1707603308500497400,12.341497314453125,6.650637626647949,-14.126201629638672,0.4721946716308594
1707603308519391200,12.36039111328125,5.371063232421875,-14.230058670043945,2.1885414123535156
1707603308538284800,12.379284912109375,2.5635297298431396,-11.844369888305664,3.9179930686950684
1707603308557178400,12.398178466796875,-1.1011160612106323,-9.036022186279297,4.816542148590088
1707603308576072000,12.417072021484374,-4.143011569976807,-5.555805683135986,4.241860389709473
1707603308594965800,12.4359658203125,-6.029778480529785,-0.8870725631713867,3.211691379547119
1707603308613859300,12.454859375,-6.439084053039551,4.454596519470215,1.465939998626709
1707603308632753000,12.4737529296875,-5.909997940063477,9.51634693145752,0.4579739570617676
1707603308651646700,12.492646728515625,-6.005837440490723,13.56186294555664,0.11069059371948242
1707603308670540300,12.511540283203125,-6.382447242736816,14.802925109863281,-1.689528465270996
1707603308689433900,12.530433837890625,-5.9379401206970215,13.44003963470459,-4.623875617980957
1707603308708327400,12.549327392578125,-4.085690498352051,9.73935317993164,-6.729905128479004
1707603308727221200,12.56822119140625,-1.880054235458374,4.216831207275391,-6.358677387237549
1707603308746114800,12.58711474609375,0.9966387748718262,-1.3349905014038086,-4.741180419921875
1707603308765008400,12.60600830078125,3.8781871795654297,-5.585563659667969,-3.281381607055664
1707603308783902000,12.62490185546875,4.812313079833984,-8.854972839355469,-1.951733112335205
1707603308802795800,12.643795654296875,4.412555694580078,-10.787689208984375,1.4420318603515625
1707603308821689300,12.662689453125,3.6911962032318115,-11.794256210327148,3.982320785522461
1707603308840583000,12.6815830078125,2.05903959274292,-11.778886795043945,5.076357841491699
1707603308859476500,12.7004765625,0.13206028938293457,-10.992046356201172,5.678756237030029
1707603308878370300,12.719370361328124,-1.3877944946289062,-9.30019760131836,6.66706657409668
1707603308897263900,12.738263916015624,-2.7820844650268555,-7.960054397583008,6.605528354644775
1707603308916157400,12.757157470703126,-3.333775758743286,-5.712406635284424,4.355136394500732
1707603308935051000,12.776051025390625,-3.1928911209106445,-2.253927707672119,1.0761241912841797
1707603308953944800,12.79494482421875,-4.224054336547852,3.7547035217285156,-2.148895263671875
1707603308972838400,12.81383837890625,-7.439554214477539,10.674038887023926,-2.2480249404907227
1707603308991732000,12.83273193359375,-9.210653305053711,15.510187149047852,-0.2603011131286621
1707603309010625800,12.851625732421875,-10.302096366882324,17.002336502075195,-2.0838966369628906
1707603309029519400,12.870519287109374,-8.802515983581543,13.85173511505127,-5.20200252532959
1707603309048413000,12.889412841796876,-5.161631107330322,7.468585014343262,-6.317748069763184
1707603309067306500,12.908306396484376,-0.5804111957550049,1.098799228668213,-5.783787250518799
1707603309086200300,12.927200439453125,3.5537519454956055,-4.296726226806641,-3.883488893508911
1707603309105094000,12.946093994140625,5.2238287925720215,-8.890615463256836,-1.781710147857666
1707603309123987500,12.964987548828125,4.509210586547852,-12.922403335571289,1.7761826515197754
1707603309142881000,12.983881103515625,4.059014320373535,-15.55647087097168,6.158285140991211
1707603309161774800,13.00277490234375,3.5484225749969482,-15.929000854492188,7.579761505126953
1707603309180668400,13.02166845703125,1.9967070817947388,-14.03558349609375,6.068155765533447
1707603309199562000,13.04056201171875,-0.4994010329246521,-10.310892105102539,3.3640642166137695
1707603309218455800,13.059455810546876,-2.7986955642700195,-4.871500015258789,1.367203712463379
1707603309237349400,13.078349365234375,-4.623871803283691,1.6609306335449219,-0.4889688491821289
1707603309256243000,13.097242919921875,-5.3923749923706055,8.701833724975586,-2.551335334777832
1707603309275136500,13.116136474609375,-5.409457683563232,13.73421573638916,-3.0736303329467773
1707603309294030300,13.1350302734375,-6.038129806518555,15.61372184753418,-3.8597617149353027
1707603309312924000,13.153923828125,-5.823074817657471,15.314432144165039,-3.841310501098633
1707603309331817500,13.1728173828125,-5.384230613708496,12.139631271362305,-3.1078481674194336
1707603309350711000,13.1917109375,-4.155364990234375,7.043724060058594,-2.3393588066101074
1707603309369604900,13.21060498046875,-2.5486092567443848,1.293844223022461,-1.726029872894287
1707603309388498400,13.22949853515625,-0.0868682861328125,-5.269102096557617,-1.5083084106445312
1707603309407392000,13.24839208984375,3.1098756790161133,-10.869759559631348,0.21784687042236328
1707603309426285800,13.267285888671875,5.121894836425781,-13.958179473876953,3.461235523223877
1707603309445179400,13.286179443359375,4.9940032958984375,-15.274900436401367,4.751473426818848
1707603309464073000,13.305072998046874,3.156454086303711,-15.037256240844727,4.191215991973877
1707603309482966500,13.323966552734374,0.6764460802078247,-11.153692245483398,3.8912010192871094
1707603309501860400,13.3428603515625,-2.724107265472412,-4.086503028869629,3.315753936767578
1707603309520754000,13.36175390625,-5.890832901000977,4.760567665100098,1.8364572525024414
1707603309539647500,13.3806474609375,-9.318116188049316,12.034439086914062,0.6936850547790527
1707603309558541000,13.399541015625,-10.211963653564453,15.591968536376953,-0.625767707824707
1707603309577435000,13.418434814453125,-8.00135612487793,15.860664367675781,-2.3314619064331055
1707603309596328400,13.437328369140625,-5.21258544921875,12.438400268554688,-4.386914253234863
1707603309615222000,13.456221923828124,-2.568596124649048,6.712223052978516,-4.777517318725586
1707603309634115600,13.475115478515624,0.47930002212524414,0.9176950454711914,-3.9761643409729004
1707603309653009400,13.494009521484376,3.6927874088287354,-3.730973243713379,-3.958979606628418
1707603309671903000,13.512903076171876,5.5687761306762695,-6.92160701751709,-3.977724075317383
1707603309690796500,13.531796630859375,5.41960334777832,-10.045644760131836,-2.3585572242736816
1707603309709690000,13.550690185546875,4.320847511291504,-12.230857849121094,1.024057388305664
1707603309728584000,13.569583984375,2.834399938583374,-13.164438247680664,4.336742401123047
1707603309747477500,13.5884775390625,1.0346453189849854,-12.651229858398438,6.294200897216797
1707603309766371000,13.60737109375,-0.5314805507659912,-11.12775993347168,5.629319667816162
1707603309785265000,13.626264892578124,-1.7691242694854736,-8.162525177001953,4.54612922668457
1707603309804158500,13.645158447265626,-2.7939319610595703,-3.034386157989502,2.400458812713623
1707603309823052000,13.664052001953126,-5.180199146270752,4.427865028381348,0.5083374977111816
1707603309841945600,13.682945556640625,-7.697197437286377,11.907413482666016,0.7668929100036621
1707603309860839400,13.70183935546875,-10.050012588500977,16.23923110961914,0.30593347549438477
1707603309879733000,13.72073291015625,-10.494227409362793,16.843852996826172,-1.432783603668213
1707603309898626600,13.73962646484375,-9.375387191772461,12.666107177734375,-3.354628562927246
1707603309917520400,13.758520263671874,-5.116479873657227,6.322696208953857,-4.005917549133301
1707603309936414000,13.7774140625,-0.5605548620223999,0.6094794273376465,-3.7313923835754395
1707603309955307500,13.7963076171875,2.894481897354126,-3.2693586349487305,-3.5426137447357178
1707603309974201300,13.815201416015626,4.419290065765381,-6.234828948974609,-3.159163236618042
1707603309993095000,13.834094970703125,4.79466438293457,-9.282923698425293,-3.0700430870056152
1707603310011988500,13.852988525390625,4.892743110656738,-12.231361389160156,-0.9478535652160645
1707603310030882000,13.871882080078125,4.934694290161133,-14.01104736328125,2.5377769470214844
1707603310049775900,13.89077587890625,3.7320704460144043,-13.942985534667969,6.0178399085998535
1707603310068669400,13.90966943359375,0.9343210458755493,-11.533855438232422,7.684282302856445
1707603310087563000,13.92856298828125,-3.288163661956787,-6.638028621673584,7.59422492980957
1707603310106456600,13.94745654296875,-8.760695457458496,-0.01218271255493164,5.934985160827637
1707603310125350400,13.966350341796876,-13.065424919128418,7.103804588317871,3.418703556060791
1707603310144244000,13.985243896484375,-12.446112632751465,12.361655235290527,2.8685736656188965
1707603310163137500,14.004137451171875,-10.260076522827148,13.102622985839844,2.1363658905029297
1707603310182031000,14.023031005859375,-7.422170639038086,10.366637229919434,-1.8844690322875977
1707603310200925000,14.041925048828125,-3.473644495010376,4.9244890213012695,-6.003602504730225
1707603310219818500,14.060818603515624,3.1197633743286133,-1.9246983528137207,-7.435971260070801
1707603310238712000,14.079712158203124,9.178102493286133,-7.35939884185791,-8.203228950500488
1707603310257606000,14.09860595703125,11.459291458129883,-11.090484619140625,-7.765932559967041
1707603310276499500,14.11749951171875,9.246512413024902,-14.150327682495117,-3.041625499725342
1707603310295393000,14.13639306640625,6.00468635559082,-15.380586624145508,3.6663122177124023
1707603310314286600,14.15528662109375,2.6167149543762207,-14.174542427062988,9.338330268859863
1707603310333180400,14.174180419921875,-1.3627235889434814,-11.062191009521484,11.017866134643555
1707603310352074000,14.193073974609375,-5.6533966064453125,-6.896252632141113,8.919567108154297
1707603310370967600,14.211967529296874,-8.62569808959961,-2.1778478622436523,5.108876705169678
1707603310389861400,14.230861328125,-10.029470443725586,2.8028836250305176,2.0333476066589355
1707603310408755000,14.2497548828125,-7.756184101104736,8.238292694091797,-0.3887147903442383
1707603310427648500,14.2686484375,-5.456505298614502,13.189912796020508,-2.1957485675811768
1707603310446542300,14.287542236328125,-5.899775505065918,14.800069808959961,-4.141196250915527
1707603310465436000,14.306435791015625,-6.438675880432129,13.12178897857666,-6.141046047210693
1707603310484329500,14.32532958984375,-4.431792259216309,9.276388168334961,-7.149215221405029
1707603310503223000,14.34422314453125,-2.1082515716552734,4.465704917907715,-6.918089866638184
1707603310522116900,14.363116943359374,0.18029522895812988,-0.5791749954223633,-5.708680629730225
1707603310541010400,14.382010498046874,2.110255241394043,-5.468565940856934,-4.270122051239014
1707603310559904000,14.400904052734376,3.4275221824645996,-10.641551971435547,-1.605048656463623
1707603310578797600,14.419797607421875,5.216424465179443,-14.72446346282959,2.335409164428711
1707603310597691400,14.43869140625,7.017799377441406,-17.383338928222656,6.991264343261719
1707603310616585000,14.4575849609375,6.693943023681641,-17.661970138549805,9.132465362548828
1707603310635478500,14.476478515625,2.6474297046661377,-16.683828353881836,7.354393005371094
1707603310654372400,14.495372314453125,-1.1221139430999756,-13.390164375305176,4.440108299255371
1707603310673266000,14.514265869140624,-3.747988224029541,-7.932854652404785,2.472477912902832
1707603310692159500,14.533159423828126,-5.227822780609131,-1.1549582481384277,1.557957649230957
1707603310711053300,14.55205322265625,-8.010371208190918,7.613363742828369,-0.3165092468261719
1707603310729947000,14.57094677734375,-12.40323257446289,15.535442352294922,-0.5193185806274414
1707603310748840400,14.58984033203125,-15.842680931091309,19.196495056152344,0.015366554260253906
1707603310767734000,14.608734130859375,-13.53577709197998,18.085552215576172,-1.2336134910583496
1707603310786627800,14.6276279296875,-9.00750732421875,13.229255676269531,-3.52781343460083
1707603310805521400,14.646521484375,-4.314321517944336,7.008449554443359,-4.593754768371582
1707603310824415000,14.6654150390625,-0.839771032333374,0.5593767166137695,-4.234841346740723
1707603310843308800,14.684308837890624,1.647946834564209,-6.128159523010254,-3.2999777793884277
1707603310862202400,14.703202392578126,4.788495063781738,-12.436193466186523,-2.23162841796875
1707603310881096000,14.722095947265625,6.721569538116455,-16.575611114501953,0.2652111053466797
1707603310899989500,14.740989501953125,8.045683860778809,-18.7652530670166,4.039938926696777
1707603310918883300,14.75988330078125,7.111761093139648,-18.267723083496094,6.224105358123779
1707603310937777000,14.77877685546875,4.099218368530273,-15.599653244018555,6.288475513458252
1707603310956670500,14.79767041015625,-0.6977195143699646,-9.824376106262207,4.798107624053955
1707603310975564000,14.81656396484375,-6.46042013168335,-1.0700278282165527,3.1069040298461914
1707603310994457900,14.835457763671876,-12.885738372802734,8.433634757995605,0.5710906982421875
1707603311013351400,14.854351318359376,-15.621767044067383,15.197338104248047,0.5836424827575684
1707603311032245000,14.873244873046875,-14.703333854675293,17.6814022064209,0.3727989196777344
1707603311051138800,14.892138916015625,-10.349620819091797,16.133750915527344,-0.8481202125549316
1707603311070032400,14.911032470703125,-7.495514869689941,10.438688278198242,-3.098311424255371
1707603311088926000,14.929926025390625,-3.8725638389587402,3.848215103149414,-4.049205780029297
1707603311107819800,14.94881982421875,-0.014012575149536133,-1.4765710830688477,-4.087336540222168
1707603311126713300,14.96771337890625,2.911733627319336,-6.146533012390137,-4.046483993530273
1707603311145607000,14.98660693359375,4.835094451904297,-10.093751907348633,-2.7332139015197754
1707603311164500500,15.00550048828125,6.11772346496582,-13.196660995483398,0.3466606140136719
1707603311183394300,15.024394287109375,6.376481056213379,-15.547061920166016,3.2307887077331543
1707603311202287900,15.043287841796875,5.949075222015381,-15.719345092773438,6.292860984802246
1707603311221181400,15.062181396484375,3.7471370697021484,-14.38180923461914,6.575577735900879
1707603311240075000,15.081074951171875,0.34618377685546875,-11.505348205566406,3.8124680519104004
1707603311258968800,15.09996875,-2.767400026321411,-6.304996490478516,1.4377636909484863
1707603311277862400,15.1188623046875,-5.219550132751465,1.337231159210205,0.32573366165161133
1707603311296756000,15.137755859375,-9.811234474182129,9.856185913085938,1.6441655158996582
1707603311315649800,15.15664990234375,-14.676188468933105,14.977958679199219,3.4559903144836426
1707603311334543400,15.17554345703125,-16.222660064697266,16.18953514099121,4.483485698699951
1707603311353437000,15.19443701171875,-13.117772102355957,12.158493995666504,2.7515645027160645
1707603311372330800,15.213330810546875,-8.675933837890625,5.770252227783203,-0.13718605041503906
1707603311391224300,15.232224365234375,-3.5051236152648926,-0.1674661636352539,-1.630110263824463
1707603311410118000,15.251117919921874,-0.14319229125976562,-6.020082473754883,-1.5311369895935059
1707603311429011700,15.27001171875,2.877337694168091,-11.3341646194458,-1.2870752811431885
1707603311447905300,15.2889052734375,6.896491527557373,-14.171062469482422,-0.6842002868652344
1707603311466798800,15.307798828125,9.845000267028809,-14.377205848693848,0.4434194564819336
1707603311485692400,15.3266923828125,9.289178848266602,-14.430538177490234,1.6553878784179688
1707603311504586200,15.345586181640625,6.1535444259643555,-13.58969497680664,2.2086939811706543
1707603311523479800,15.364479736328125,1.5186820030212402,-11.025556564331055,2.508563995361328
1707603311542373400,15.383373291015625,-2.4240522384643555,-5.5242509841918945,2.760880470275879
1707603311561267200,15.40226708984375,-7.120272636413574,2.495525360107422,2.374990463256836
1707603311580160800,15.421160888671874,-12.823280334472656,10.783868789672852,2.548567771911621
1707603311599054300,15.440054443359376,-15.773531913757324,15.222541809082031,3.194251537322998
1707603311617948000,15.458947998046876,-15.26362419128418,15.087528228759766,2.7366557121276855
1707603311636841700,15.477841796875,-11.194621086120605,10.251148223876953,0.6248745918273926
1707603311655735300,15.4967353515625,-5.831817626953125,3.9752912521362305,-1.1840136051177979
1707603311674628900,15.51562890625,-1.053000569343567,-1.307466983795166,-2.2017080783843994
1707603311693522700,15.534522705078125,2.350590944290161,-5.474041938781738,-2.783879041671753
1707603311712416300,15.553416259765624,5.091710567474365,-9.54902458190918,-3.0295379161834717
1707603311731309800,15.572309814453124,8.067188262939453,-12.107809066772461,-2.4251766204833984
1707603311750203400,15.591203369140626,8.630590438842773,-13.654764175415039,-0.4888424873352051
1707603311769097200,15.61009716796875,6.643169403076172,-14.540289878845215,2.536898136138916
1707603311787990800,15.62899072265625,3.880305290222168,-13.587652206420898,5.44871187210083
1707603311806884400,15.64788427734375,-0.0780026912689209,-10.741748809814453,5.685173988342285
1707603311825778200,15.666778076171875,-4.01751184463501,-5.099686145782471,3.9716734886169434
1707603311844671700,15.685671630859375,-7.3338422775268555,1.3710789680480957,2.4264817237854004
1707603311863565300,15.7045654296875,-10.659361839294434,7.953586578369141,1.2318215370178223
1707603311882459100,15.723459228515624,-11.888798713684082,12.824274063110352,1.1549224853515625
1707603311901352700,15.742352783203126,-10.951308250427246,13.727388381958008,1.790414810180664
1707603311920246300,15.761246337890626,-8.446477890014648,11.383162498474121,0.9874095916748047
1707603311939140000,15.78014013671875,-6.172458171844482,6.809628486633301,-1.39752197265625
1707603311958033700,15.79903369140625,-2.303199052810669,1.9913873672485352,-3.381643772125244
1707603311976927200,15.81792724609375,1.4900126457214355,-2.6506385803222656,-4.6941375732421875
1707603311995820800,15.83682080078125,5.015928268432617,-6.908433437347412,-4.7360382080078125
1707603312014714600,15.855714599609374,8.09998893737793,-10.450862884521484,-3.383143424987793
1707603312033608200,15.874608154296874,8.499063491821289,-13.003527641296387,-0.40568017959594727
1707603312052501800,15.893501708984376,7.172076225280762,-14.042301177978516,2.733806610107422
1707603312071395600,15.9123955078125,4.541111946105957,-13.993734359741211,5.145925045013428
1707603312090289200,15.9312890625,1.46759831905365,-12.68217658996582,5.68953800201416
1707603312109182700,15.9501826171875,-1.5808346271514893,-8.923588752746582,5.138363838195801
1707603312128076500,15.96907666015625,-4.7690043449401855,-4.688010215759277,4.349228382110596
1707603312146970000,15.98797021484375,-8.308992385864258,0.5215787887573242,2.3564553260803223
1707603312165863700,16.00686376953125,-11.295011520385742,7.347092151641846,0.6642217636108398
1707603312184757200,16.02575732421875,-11.871538162231445,12.563294410705566,0.9854354858398438
1707603312203651000,16.044651123046876,-11.347065925598145,14.470616340637207,1.3708295822143555
1707603312222544600,16.063544677734374,-8.862168312072754,13.362154960632324,-0.010348320007324219
1707603312241438200,16.082438232421875,-6.743236541748047,9.202637672424316,-2.4843955039978027
1707603312260332000,16.10133203125,-3.577889919281006,3.2197208404541016,-3.699389934539795
1707603312279225600,16.1202255859375,0.23034048080444336,-3.303621292114258,-3.670708656311035
1707603312298119200,16.139119140625,4.288060665130615,-9.350481033325195,-3.4558002948760986
1707603312317012700,16.1580126953125,7.333163261413574,-13.97144603729248,-1.0835227966308594
1707603312335906600,16.176906494140624,9.2066650390625,-16.250011444091797,2.252347946166992
1707603312354800000,16.195800048828126,8.598129272460938,-16.367958068847656,3.832343101501465
1707603312373693700,16.214693603515624,5.603513717651367,-14.22830581665039,3.7092738151550293
1707603312392587500,16.23358740234375,1.26639723777771,-9.162521362304688,1.9256620407104492
1707603312411481000,16.252481201171875,-3.995213270187378,-1.7471222877502441,0.4890275001525879
1707603312430374700,16.271374755859377,-10.821017265319824,7.483800888061523,0.9565463066101074
1707603312449268500,16.2902685546875,-16.149232864379883,13.306840896606445,3.24312686920166
1707603312468162000,16.309162109375,-17.347206115722656,14.680500030517578,4.1326985359191895
1707603312487055600,16.3280556640625,-13.074968338012695,12.680113792419434,2.998018264770508
1707603312505949200,16.34694921875,-9.633842468261719,7.1725311279296875,0.9238672256469727
1707603312524843000,16.365843017578126,-5.271756172180176,1.5446100234985352,-0.7177157402038574
1707603312543736600,16.384736572265624,-1.5543174743652344,-3.904499053955078,-1.3572521209716797
1707603312562630100,16.403630126953125,2.2964117527008057,-9.298306465148926,-0.951632022857666
1707603312581524000,16.42252392578125,7.051719665527344,-13.806503295898438,-1.1396903991699219
1707603312600417500,16.44141748046875,10.290387153625488,-15.255894660949707,-0.7030632495880127
1707603312619311000,16.46031103515625,9.800029754638672,-15.543083190917969,1.061084270477295
1707603312638205000,16.479204833984376,7.1699371337890625,-15.236186981201172,3.199367046356201
1707603312657098500,16.498098388671874,3.821638345718384,-13.416376113891602,3.3080315589904785
1707603312675992000,16.516991943359375,0.6272356510162354,-10.10014820098877,3.145542621612549
1707603312694885600,16.5358857421875,-3.0647432804107666,-4.93770694732666,1.3067140579223633
1707603312713779500,16.554779541015623,-7.770441055297852,2.575028419494629,0.30262327194213867
1707603312732673000,16.573673095703125,-13.152633666992188,9.561018943786621,1.59946870803833
1707603312751566600,16.592566650390626,-16.594614028930664,12.274720191955566,3.6589999198913574
1707603312770460400,16.61146044921875,-14.49280071258545,12.30981159210205,3.3228068351745605
1707603312789354000,16.63035400390625,-9.907304763793945,10.823858261108398,1.4318184852600098
1707603312808247600,16.64924755859375,-6.609476089477539,7.313493728637695,0.0818486213684082
1707603312827141400,16.668141357421874,-3.9850430488586426,2.978093147277832,-0.34624195098876953
1707603312846035000,16.687034912109375,-1.3653876781463623,-2.472318172454834,0.006674289703369141
1707603312864928500,16.705928466796873,2.7492170333862305,-8.41883373260498,-0.6026735305786133
1707603312883822300,16.724822265625,8.304709434509277,-13.17223072052002,-2.9325108528137207
1707603312902716000,16.7437158203125,11.848904609680176,-16.19028091430664,-3.8762781620025635
1707603312921609500,16.762609375,11.871322631835938,-17.341041564941406,-1.2900526523590088
1707603312940503300,16.78150341796875,8.005946159362793,-15.95425033569336,1.9505925178527832
1707603312959396900,16.80039697265625,2.0642826557159424,-11.39367961883545,2.611847400665283
1707603312978290400,16.81929052734375,-4.054383754730225,-3.9512176513671875,1.4730420112609863
1707603312997184300,16.838184326171874,-10.302732467651367,3.830989360809326,1.7416234016418457
1707603313016077800,16.857077880859375,-14.280974388122559,8.5081148147583,3.492189407348633
1707603313034971400,16.875971435546877,-13.678218841552734,10.973843574523926,4.566608428955078
1707603313053865000,16.894864990234375,-11.224154472351074,11.010844230651855,4.276149749755859
1707603313072758800,16.9137587890625,-8.534088134765625,8.969766616821289,2.6036925315856934
1707603313091652400,16.93265234375,-5.880194664001465,5.99235725402832,0.6654138565063477
1707603313110546000,16.9515458984375,-2.6498377323150635,2.8649978637695312,-0.9806380271911621
1707603313129439700,16.970439697265626,0.36354756355285645,0.11466789245605469,-2.622541904449463
1707603313148333300,16.989333251953123,3.4984383583068848,-2.575894832611084,-4.785566329956055
1707603313167227000,17.008226806640625,5.472406387329102,-5.197624683380127,-6.160744667053223
1707603313186120700,17.02712060546875,6.630444526672363,-7.93276309967041,-6.527213096618652
1707603313205014300,17.04601416015625,5.5978827476501465,-10.108171463012695,-6.350192070007324
1707603313223907800,17.064907958984374,6.492465496063232,-10.575190544128418,-4.365859031677246
1707603313242801700,17.0838017578125,4.617508888244629,-10.266737937927246,-3.8296103477478027
1707603313261695200,17.1026953125,2.3042242527008057,-8.293763160705566,-4.501616477966309
1707603313280588800,17.1215888671875,0.21376824378967285,-5.68917989730835,-4.294886589050293
1707603313299482400,17.140482421875,-1.532275915145874,-3.9289932250976562,-0.8302698135375977
1707603313318376200,17.159376220703123,-4.159808158874512,-2.526249408721924,3.8422069549560547
1707603313337269800,17.178269775390625,-5.34709358215332,-0.292327880859375,7.747175216674805
1707603313356163300,17.197163330078126,-5.88984489440918,1.4045450687408447,11.751362800598145
1707603313375057200,17.21605712890625,-6.536114692687988,1.7163159847259521,14.323060989379883
1707603313393950700,17.23495068359375,-7.123138904571533,1.7877469062805176,12.827179908752441
1707603313412844300,17.25384423828125,-6.931633949279785,1.0379446744918823,10.258763313293457
1707603313431738000,17.272738037109374,-5.955391883850098,0.13717961311340332,6.632762908935547
1707603313450631700,17.291631591796875,-4.668516159057617,-0.42021310329437256,2.6492137908935547
1707603313469525200,17.310525146484373,-2.723574638366699,-1.0754411220550537,-0.7989158630371094
1707603313488418800,17.329418701171875,-0.692833423614502,-1.2177891731262207,-4.0606369972229
1707603313507312600,17.348312744140625,1.1509647369384766,-0.678915798664093,-7.1298627853393555
1707603313526206200,17.367206298828126,2.5668487548828125,-0.14575541019439697,-8.986227035522461
1707603313545100000,17.38610009765625,3.2986254692077637,0.3514171242713928,-9.976993560791016
1707603313563993600,17.40499365234375,3.1561412811279297,0.863115131855011,-10.215899467468262
1707603313582887200,17.42388720703125,3.587817668914795,0.7977772951126099,-9.791360855102539
1707603313601780700,17.44278076171875,4.45744514465332,0.2998412847518921,-7.942625999450684
1707603313620674600,17.461674560546875,3.283827304840088,-0.3990147113800049,-4.677990913391113
1707603313639568100,17.480568115234377,1.6908855438232422,-1.3763906955718994,-0.3379969596862793
1707603313658461700,17.499461669921875,-1.1085662841796875,-1.4568126201629639,5.378780364990234
1707603313677355500,17.51835546875,-4.577047348022461,-0.8652145862579346,11.491182327270508
1707603313696249000,17.5372490234375,-7.429814338684082,-0.4022698402404785,15.015581130981445
1707603313715142700,17.556142578125,-7.468500137329102,-1.4837126731872559,14.96056842803955
1707603313734036500,17.575036376953125,-5.284964561462402,-3.1796584129333496,9.590696334838867
1707603313752930000,17.593929931640623,-2.465066432952881,-3.0018022060394287,2.1535634994506836
1707603313771823600,17.61282373046875,-0.30322885513305664,-1.7463397979736328,-3.7826616764068604
1707603313790717400,17.631717529296875,0.24269866943359375,-0.10209488868713379,-7.0444440841674805
1707603313809611000,17.650611083984376,0.24890613555908203,1.4523452520370483,-8.135675430297852
1707603313828504600,17.669504638671874,-0.41280651092529297,2.5509676933288574,-8.613372802734375
1707603313847398100,17.688398193359376,0.30835533142089844,2.608461380004883,-8.517430305480957
1707603313866292000,17.7072919921875,2.5938820838928223,1.958615779876709,-8.126043319702148
1707603313885185500,17.726185546875,3.821280002593994,0.8943870067596436,-7.077484130859375
1707603313904079000,17.7450791015625,3.4818506240844727,-0.7864437103271484,-4.293271064758301
1707603313922973000,17.763972900390623,2.1298861503601074,-2.136471748352051,0.10799646377563477
1707603313941866500,17.782866455078125,-0.46256399154663086,-3.726565361022949,7.174609661102295
1707603313960760000,17.801760009765626,-3.537935733795166,-3.613363265991211,13.381366729736328
1707603313979654000,17.82065380859375,-5.886040687561035,-3.33903169631958,15.655038833618164
1707603313998547500,17.83954736328125,-5.657096862792969,-4.621649265289307,14.581180572509766
1707603314017441000,17.85844091796875,-4.512389183044434,-5.492912769317627,8.76795482635498
1707603314036334800,17.8773349609375,-3.3638882637023926,-4.941829681396484,0.9275455474853516
1707603314055228400,17.896228515625,-1.865516185760498,-3.4467432498931885,-5.5362067222595215
1707603314074122000,17.9151220703125,-0.0833892822265625,-1.548365831375122,-9.705450057983398
1707603314093015800,17.934015869140627,1.9466352462768555,-0.15566492080688477,-9.537185668945312
1707603314111909400,17.952909423828125,1.3433947563171387,-0.4631779193878174,-8.11219596862793
1707603314130803000,17.971802978515626,0.768887996673584,-0.9917702674865723,-6.084619045257568
1707603314149696800,17.99069677734375,0.4602370262145996,-1.1726551055908203,-3.166390895843506
1707603314168590300,18.00959033203125,0.3626112937927246,-1.4811429977416992,-0.8133792877197266
1707603314187484000,18.02848388671875,0.8294572830200195,-0.7548418045043945,0.9202427864074707
1707603314206377500,18.04737744140625,0.2932920455932617,0.22459173202514648,1.855726718902588
1707603314225271300,18.066271240234375,0.40018796920776367,2.535518169403076,2.386241912841797
1707603314244164900,18.085164794921877,0.9639391899108887,4.893365859985352,2.948716163635254
1707603314263058700,18.10405859375,2.1069860458374023,7.582189083099365,2.6478710174560547
1707603314281952300,18.1229521484375,1.568901538848877,10.60391616821289,0.9536561965942383
1707603314300845800,18.141845703125,-0.6464486122131348,11.477239608764648,-1.7163820266723633
1707603314319739400,18.160739501953124,-2.705538749694824,9.570878028869629,-3.7931017875671387
1707603314338633200,18.17963330078125,-3.2091689109802246,5.474713325500488,-4.8131818771362305
1707603314357526800,18.19852685546875,-3.2851943969726562,0.11515522003173828,-4.287538051605225
1707603314376420400,18.21742041015625,-3.0086517333984375,-5.367527008056641,-2.2301392555236816
1707603314395314200,18.236314208984375,-1.6623644828796387,-8.766668319702148,0.15411138534545898
1707603314414207700,18.255207763671876,-0.3030705451965332,-9.826465606689453,1.191199779510498
1707603314433101300,18.274101318359374,-0.2785511016845703,-10.296772003173828,1.3142743110656738
1707603314451995100,18.2929951171875,-0.5434813499450684,-10.293548583984375,0.7740235328674316
1707603314470888700,18.311888671875,-0.9582428932189941,-9.506795883178711,1.2614221572875977
1707603314489782300,18.3307822265625,-0.7642364501953125,-7.993612766265869,2.927130699157715
1707603314508676000,18.349676025390625,-0.5532827377319336,-5.478785037994385,4.024543762207031
1707603314527569700,18.368569580078123,-0.6994819641113281,-2.087491512298584,4.29319953918457
1707603314546463200,18.387463134765625,-1.098642349243164,1.936870813369751,3.145902156829834
1707603314565356800,18.406356689453126,-0.7645974159240723,5.589512825012207,0.6937069892883301
1707603314584250600,18.425250732421876,0.15594005584716797,8.970670700073242,-1.7396321296691895
1707603314603144200,18.444144287109374,0.06805753707885742,12.333097457885742,-3.252467632293701
1707603314622038000,18.4630380859375,-0.7960672378540039,13.551536560058594,-4.247251510620117
1707603314640931600,18.481931640625,-1.6504387855529785,11.769451141357422,-4.588200569152832
1707603314659825200,18.5008251953125,-0.7653732299804688,8.537863731384277,-4.792283058166504
1707603314678718700,18.51971875,-0.31548070907592773,4.838444709777832,-4.68388557434082
1707603314697612500,18.538612548828127,-1.0737709999084473,0.934563159942627,-3.933338165283203
1707603314716506000,18.557506103515625,-1.4117755889892578,-3.239589214324951,-2.5500946044921875
1707603314735399700,18.576399658203126,-1.6024236679077148,-6.3541975021362305,-0.6421375274658203
1707603314754293500,18.59529345703125,-1.4717350006103516,-7.93602991104126,1.0320138931274414
1707603314773187000,18.61418701171875,-1.867131233215332,-9.03976821899414,1.7454471588134766
1707603314792080600,18.63308056640625,-2.3477420806884766,-10.127120971679688,1.7994532585144043
1707603314810974500,18.651974365234373,-1.7121524810791016,-10.406682968139648,2.0176525115966797
1707603314829868000,18.670867919921875,-1.0923514366149902,-9.757184982299805,2.6752266883850098
1707603314848761600,18.68976171875,-0.9413137435913086,-8.099196434020996,2.6423282623291016
1707603314867655400,18.708655517578126,-1.6138920783996582,-5.645325183868408,2.548941135406494
1707603314886549000,18.727549072265624,-2.1582841873168945,-2.7152509689331055,2.099012851715088
1707603314905442600,18.746442626953126,-1.933060646057129,0.6137480735778809,1.1057186126708984
1707603314924336400,18.76533642578125,-1.221123218536377,4.717127323150635,-1.1225662231445312
1707603314943230000,18.78422998046875,-0.4080653190612793,9.170256614685059,-3.4979846477508545
1707603314962123500,18.80312353515625,-0.361264705657959,12.065084457397461,-4.646079063415527
1707603314981017300,18.822017333984373,0.26326799392700195,13.168200492858887,-5.179217338562012
1707603314999911000,18.840910888671875,1.5775141716003418,11.944938659667969,-5.208384037017822
1707603315018804500,18.859804443359376,1.5425310134887695,9.087265968322754,-4.824768543243408
1707603315037698000,18.878697998046874,0.8077578544616699,5.6520819664001465,-3.804288387298584
1707603315056592000,18.897591796875,-0.8363008499145508,1.7489895820617676,-2.5046417713165283
1707603315075485400,18.9164853515625,-2.4906907081604004,-3.137444019317627,-0.4644308090209961
1707603315094379300,18.935379150390624,-3.230266809463501,-7.207583904266357,2.9427647590637207
1707603315113272800,18.95427294921875,-2.6567111015319824,-9.627229690551758,6.108783721923828
1707603315132166400,18.97316650390625,-2.529813289642334,-11.294107437133789,7.3271484375
1707603315151060000,18.99206005859375,-1.902052879333496,-11.95833969116211,5.760477066040039
1707603315169953800,19.010953857421875,-1.370753288269043,-11.043808937072754,3.177243709564209
1707603315188847400,19.029847412109376,-1.196171760559082,-8.954952239990234,1.6789770126342773
1707603315207741000,19.048740966796874,-1.06355619430542,-5.966810703277588,0.46477603912353516
1707603315226634800,19.067634765625,-1.029219627380371,-1.8497428894042969,-0.044022560119628906
1707603315245528300,19.0865283203125,-0.4214186668395996,3.158493757247925,-0.4606466293334961
1707603315264422000,19.105421875,0.07432174682617188,8.829501152038574,-1.335707664489746
1707603315283315700,19.124315673828125,-0.6606707572937012,13.238025665283203,-2.8624825477600098
1707603315302209300,19.143209228515627,-1.5115041732788086,14.630668640136719,-4.357738018035889
1707603315321102800,19.162102783203125,-0.974360466003418,13.677249908447266,-5.6227707862854
1707603315339996700,19.18099658203125,0.38016271591186523,10.492663383483887,-5.87984561920166
1707603315358890200,19.19989013671875,0.7660350799560547,6.299853324890137,-5.030363082885742
1707603315377783800,19.21878369140625,0.1559886932373047,2.454883337020874,-3.9273905754089355
1707603315396677600,19.237677734375,-1.467294692993164,-1.2504315376281738,-2.673187255859375
1707603315415571200,19.2565712890625,-2.984374761581421,-5.171452522277832,-0.8954572677612305
1707603315434464800,19.27546484375,-3.26796555519104,-8.01576042175293,1.5703654289245605
1707603315453358600,19.294358642578125,-2.9801430702209473,-9.746477127075195,3.4715895652770996
1707603315472252200,19.313252197265626,-2.799396514892578,-11.163284301757812,3.8064651489257812
1707603315491145700,19.332145751953124,-1.4242563247680664,-11.435789108276367,2.566920757293701
1707603315510039300,19.351039306640626,-0.17002010345458984,-10.515739440917969,1.349987506866455
1707603315528933000,19.36993310546875,-0.2153186798095703,-8.299772262573242,0.8436379432678223
1707603315547826700,19.38882666015625,-0.7293705940246582,-5.48117208480835,0.9562740325927734
1707603315566720500,19.407720458984375,-0.6756906509399414,-1.6930193901062012,1.1220221519470215
1707603315585614000,19.426614013671873,0.3469986915588379,3.142279863357544,1.3086471557617188
1707603315604507600,19.445507568359375,0.7030458450317383,9.269790649414062,-0.16767549514770508
1707603315623401200,19.464401123046876,-0.7730464935302734,14.433506965637207,-2.7293760776519775
1707603315642295000,19.483294921875,-2.2898430824279785,16.30429458618164,-5.768210411071777
1707603315661188600,19.502188720703124,-1.3081088066101074,13.814474105834961,-6.315200328826904
1707603315680082200,19.521082275390626,0.6458725929260254,8.929498672485352,-5.251614570617676
1707603315698976000,19.53997607421875,0.35299205780029297,3.5127413272857666,-2.9536867141723633
1707603315717869600,19.55886962890625,-1.5325469970703125,-1.9493861198425293,-1.044741153717041
1707603315736763100,19.57776318359375,-2.201442241668701,-6.884178638458252,1.238968849182129
1707603315755657000,19.596656982421877,-1.9449219703674316,-10.119575500488281,3.367363929748535
1707603315774550500,19.615550537109375,-1.8866825103759766,-11.7200927734375,4.473252773284912
1707603315793444000,19.634444091796876,-2.4150564670562744,-12.503358840942383,3.3929214477539062
1707603315812338000,19.653337890625,-1.9150023460388184,-12.284360885620117,1.3523969650268555
1707603315831231500,19.6722314453125,-1.2006888389587402,-10.624870300292969,-0.18445444107055664
1707603315850125000,19.691125,-0.7675118446350098,-7.674703598022461,-0.7700347900390625
1707603315869019000,19.710018798828123,-1.0770206451416016,-4.545917987823486,-0.35404205322265625
1707603315887912400,19.728912353515625,-1.2048072814941406,-0.8443775177001953,0.20403814315795898
1707603315906806000,19.747805908203127,-0.8036551475524902,3.84335994720459,0.3582477569580078
1707603315925699800,19.766699951171876,-1.1034202575683594,9.665220260620117,-0.5397634506225586
1707603315944593400,19.785593505859374,-1.9231610298156738,14.02862548828125,-2.316774368286133
1707603315963487000,19.804487060546876,-2.639836311340332,15.94273853302002,-4.348061561584473
1707603315982380800,19.823380859375,-1.650169849395752,15.00247859954834,-5.518150329589844
1707603316001274400,19.8422744140625,0.017586231231689453,11.490681648254395,-5.859366416931152
1707603316020168000,19.86116796875,0.004021644592285156,6.727342128753662,-4.748727798461914
1707603316039061800,19.880061767578123,-0.8586845397949219,2.0320234298706055,-3.327754020690918
1707603316057955300,19.898955322265625,-2.403676986694336,-2.8335628509521484,-1.7444746494293213
1707603316076849000,19.917848876953126,-3.0413200855255127,-7.352290630340576,0.27883195877075195
1707603316095742500,19.936742431640624,-2.6896913051605225,-10.419292449951172,2.370938777923584
1707603316114636300,19.95563623046875,-2.067272901535034,-12.305805206298828,3.3976664543151855
1707603316133529900,19.97452978515625,-1.739668369293213,-13.264453887939453,3.221395492553711
1707603316152423700,19.993423583984374,-0.5866560935974121,-12.920092582702637,2.222820281982422
1707603316171317200,20.012317138671875,-0.2888798713684082,-11.0389986038208,1.684793472290039
1707603316190210800,20.0312109375,-0.4378223419189453,-8.09955883026123,2.072490692138672
1707603316209104400,20.0501044921875,-0.9369292259216309,-4.5488691329956055,2.2885866165161133
1707603316227998200,20.068998291015625,-1.4261469841003418,-0.3501768112182617,2.400752067565918
1707603316246891800,20.087891845703126,-1.881119728088379,4.679145812988281,0.5747814178466797
1707603316265785600,20.10678564453125,-2.033998966217041,10.438905715942383,-2.4424209594726562
1707603316284679200,20.12567919921875,-1.9342164993286133,14.462918281555176,-4.275981426239014
1707603316303572700,20.14457275390625,-2.2965660095214844,15.977766036987305,-5.430737018585205
1707603316322466600,20.163466552734373,-1.0710573196411133,14.84228515625,-5.58786678314209
1707603316341360000,20.182360107421875,-0.30313777923583984,11.122350692749023,-5.426180362701416
1707603316360253700,20.201253662109377,-0.7769246101379395,6.349061965942383,-4.89531946182251
1707603316379147300,20.220147216796875,-1.5861291885375977,1.0110886096954346,-3.8457674980163574
1707603316398041000,20.239041015625,-2.3106589317321777,-4.284149169921875,-2.268871307373047
1707603316416934700,20.2579345703125,-1.8328475952148438,-8.562946319580078,0.22991085052490234
1707603316435828500,20.276828369140624,-1.1211576461791992,-10.669178009033203,2.693086624145508
1707603316454722000,20.29572216796875,-1.300715446472168,-11.571981430053711,3.8437323570251465
1707603316473615600,20.31461572265625,-1.737656593322754,-11.953672409057617,3.0726704597473145
1707603316492509200,20.33350927734375,-0.968320369720459,-11.26101303100586,1.8867740631103516
1707603316511403000,20.352403076171875,-0.16881752014160156,-9.346799850463867,1.3995747566223145
1707603316530296600,20.371296630859376,0.045278072357177734,-6.290791034698486,1.1660866737365723
1707603316549190100,20.390190185546874,-0.43613767623901367,-2.5958170890808105,1.0311546325683594
1707603316568084000,20.409083984375,-0.6390252113342285,1.7536742687225342,0.6671671867370605
1707603316586977500,20.4279775390625,-1.0671911239624023,7.202518463134766,-0.29264163970947266
1707603316605871000,20.44687109375,-1.6507682800292969,12.865346908569336,-2.3481287956237793
1707603316624765000,20.465764892578125,-2.9081921577453613,15.908066749572754,-4.2494096755981445
1707603316643658500,20.484658447265623,-3.4037137031555176,15.041481018066406,-5.855534553527832
1707603316662552000,20.503552001953125,-1.1868953704833984,10.897424697875977,-5.999002456665039
1707603316681446000,20.52244580078125,-0.03543996810913086,5.4460883140563965,-5.08621072769165
1707603316700339500,20.54133935546875,-0.2486882209777832,-0.7582058906555176,-2.873802900314331
1707603316719233000,20.56023291015625,-0.6598844528198242,-6.092117786407471,0.09882020950317383
1707603316738126800,20.579126953125,-0.2783932685852051,-8.955354690551758,3.167029857635498
1707603316757020400,20.5980205078125,-0.9466662406921387,-10.021173477172852,4.990800380706787
1707603316775914000,20.6169140625,-2.3406662940979004,-10.723573684692383,4.683867931365967
1707603316794807800,20.635807861328125,-2.7032454013824463,-10.477224349975586,2.6771740913391113
1707603316813701400,20.654701416015627,-1.1117911338806152,-9.439656257629395,0.8310694694519043
1707603316832595000,20.673594970703125,-0.17598867416381836,-7.559234142303467,0.027869701385498047
1707603316851488800,20.69248876953125,0.2631220817565918,-4.8797407150268555,0.7931485176086426
1707603316870382300,20.71138232421875,0.019817352294921875,-1.7101316452026367,1.645864486694336
1707603316889276000,20.73027587890625,-0.3267078399658203,1.939098834991455,1.5722942352294922
1707603316908169700,20.749169677734375,-0.6029086112976074,6.176542282104492,0.21787166595458984
1707603316927063300,20.768063232421873,-1.6871767044067383,11.231616973876953,-2.997422695159912
1707603316945956900,20.786956787109375,-3.680530548095703,15.285840034484863,-6.968731880187988
1707603316964850700,20.8058505859375,-4.070891380310059,14.571257591247559,-9.474740982055664
1707603316983744300,20.824744140625,-0.9360017776489258,10.426167488098145,-9.336468696594238
1707603317002637800,20.843637939453124,0.6899595260620117,4.531164169311523,-6.5874128341674805
1707603317021531600,20.86253173828125,-0.03389549255371094,-1.708888053894043,-2.4763474464416504
1707603317040425200,20.88142529296875,-0.6396746635437012,-6.950221061706543,1.4683198928833008
1707603317059318800,20.90031884765625,-0.7048988342285156,-9.761343002319336,4.545348644256592
1707603317078212600,20.919212646484375,-1.271766185760498,-10.81613540649414,5.868268013000488
1707603317097106200,20.938106201171873,-2.0182244777679443,-11.157037734985352,4.17142391204834
1707603317115999700,20.956999755859375,-1.8866453170776367,-10.92129898071289,1.6485705375671387
1707603317134893600,20.9758935546875,-0.5720529556274414,-9.669437408447266,-0.07069683074951172
1707603317153787100,20.994787109375,0.3144102096557617,-7.1975579261779785,-0.1718297004699707
1707603317172680700,21.0136806640625,0.313417911529541,-3.702909469604492,1.332873821258545
1707603317191574500,21.032574462890626,0.15314483642578125,0.23793363571166992,2.517760753631592
1707603317210468000,21.051468017578124,-0.33443355560302734,5.277386665344238,2.324080467224121
1707603317229361700,21.070361572265625,-2.0201454162597656,11.471633911132812,0.16133499145507812
1707603317248255500,21.08925537109375,-4.310385704040527,15.485955238342285,-3.1770942211151123
1707603317286042600,21.127042724609375,-1.796614170074463,11.019776344299316,-7.061075210571289
1707603317304936400,21.1459365234375,0.21505975723266602,5.938175678253174,-6.289226055145264
1707603317323830000,21.164830078125,0.26801633834838867,0.18049287796020508,-4.46787691116333
1707603317342723600,21.1837236328125,0.01373147964477539,-5.4478888511657715,-1.5902118682861328
1707603317361617400,21.202617431640626,0.44080352783203125,-9.519701957702637,1.1206374168395996
1707603317380511000,21.221510986328123,0.7700691223144531,-10.639371871948242,2.442911148071289
1707603317399404500,21.240404541015625,-0.7957863807678223,-10.664804458618164,2.3903722763061523
1707603317418298400,21.25929833984375,-2.428997039794922,-9.657093048095703,2.029930591583252
1707603317437192000,21.27819189453125,-2.4663186073303223,-8.288307189941406,1.6263618469238281
1707603317456085500,21.29708544921875,-0.8791632652282715,-6.369359970092773,1.912938117980957
1707603317474979300,21.315979248046876,0.8668379783630371,-3.701289653778076,2.369004726409912
1707603317493873000,21.334872802734374,0.9143924713134766,-0.11224889755249023,2.2242236137390137
1707603317512766500,21.353766357421875,-0.5444459915161133,3.9661028385162354,0.7406477928161621
1707603317531660300,21.372660400390625,-1.7993783950805664,7.875048637390137,-1.2916340827941895
1707603317550553900,21.391553955078123,-2.1916069984436035,9.980925559997559,-2.9882450103759766
1707603317569447400,21.410447509765625,-2.178884506225586,9.778641700744629,-4.28984260559082
1707603317588341200,21.42934130859375,-0.9061093330383301,8.701221466064453,-5.102988243103027
1707603317607234800,21.44823486328125,0.5169997215270996,6.184240341186523,-5.565506458282471
1707603317626128400,21.46712841796875,1.2846894264221191,3.082224130630493,-5.282346248626709
1707603317645022200,21.486022216796876,1.1794500350952148,-0.07282161712646484,-4.573832035064697
1707603317663915800,21.504915771484374,0.598360538482666,-3.5067334175109863,-2.727917432785034
1707603317682809300,21.523809326171875,0.2046675682067871,-6.550119400024414,-0.5068860054016113
1707603317701703200,21.542703125,-0.14031744003295898,-7.711950302124023,1.8584108352661133
1707603317720596700,21.5615966796875,-1.1415586471557617,-7.574658393859863,4.2547607421875
1707603317739490300,21.580490234375,-2.5498251914978027,-7.285406589508057,5.517309188842773
1707603317758384000,21.599384033203126,-2.7884435653686523,-6.7643513679504395,5.43277645111084
1707603317777277700,21.618277587890624,-1.699800968170166,-5.757747650146484,4.429292678833008
1707603317796171300,21.637171142578126,-0.2882990837097168,-4.310012340545654,3.269680976867676
1707603317815065000,21.656065185546876,0.6250944137573242,-2.497239828109741,2.043059825897217
1707603317833958700,21.674958740234374,1.192345142364502,-0.8550980091094971,1.1742734909057617
1707603317852852200,21.693852294921875,1.2085189819335938,0.05974411964416504,-0.11911296844482422
1707603317871746000,21.71274609375,0.7219910621643066,0.837699294090271,-1.2506322860717773
1707603317890639600,21.7316396484375,0.3943462371826172,1.3132354021072388,-2.823899269104004
1707603317909533200,21.750533203125,0.094085693359375,1.9951510429382324,-4.671828269958496
1707603317928427000,21.769427001953126,-0.03940153121948242,2.616366386413574,-6.25597620010376
1707603317947320600,21.788320556640624,-0.7498946189880371,3.0923349857330322,-6.652905464172363
1707603317966214100,21.807214111328125,-0.7989203929901123,2.0347580909729004,-5.506467819213867
1707603317985108000,21.82610791015625,0.5921616554260254,0.9191281795501709,-5.478307723999023
1707603318004001500,21.84500146484375,1.4583630561828613,0.21104788780212402,-6.435194492340088
1707603318022895000,21.86389501953125,2.149714946746826,-0.6583266258239746,-5.823603630065918
1707603318041789000,21.882788818359376,1.8707525730133057,-1.6637723445892334,-3.3412723541259766
1707603318060682500,21.9016826171875,0.8509383201599121,-2.699542999267578,0.7875175476074219
1707603318079576000,21.920576171875,-0.04865550994873047,-1.3500081300735474,3.541073799133301
1707603318098470000,21.939469970703126,-1.4755232334136963,0.38175010681152344,4.263385772705078
1707603318117363500,21.958363525390624,-3.685871124267578,2.7237374782562256,4.090734481811523
1707603318136257000,21.977257080078125,-5.825830936431885,4.669486999511719,4.189169883728027
1707603318155150800,21.99615087890625,-6.424990653991699,5.683384418487549,3.9356327056884766
1707603318174044400,22.01504443359375,-5.007281303405762,5.153841018676758,3.3569869995117188
1707603318192938000,22.03393798828125,-3.7059216499328613,3.717499256134033,2.7759227752685547
1707603318211831800,22.052831787109376,-2.1132493019104004,2.0536928176879883,1.563405990600586
1707603318230725400,22.071725341796874,-0.6492934226989746,0.34183549880981445,0.9066410064697266
1707603318249619000,22.090618896484376,0.6486613750457764,-1.3785696029663086,0.024626731872558594
1707603318268512800,22.1095126953125,1.825273036956787,-3.5454790592193604,-1.0021171569824219
1707603318287406300,22.12840625,2.6363213062286377,-6.137393951416016,-2.2933878898620605
1707603318306300000,22.1472998046875,3.8508334159851074,-8.617046356201172,-2.240971088409424
1707603318325193700,22.16619384765625,5.595715522766113,-10.052438735961914,-1.7906131744384766
1707603318344087300,22.18508740234375,4.799924373626709,-10.280534744262695,-1.964911937713623
1707603318362980900,22.20398095703125,2.225058078765869,-7.758531093597412,-2.6445446014404297
1707603318381874700,22.222874755859376,0.7955132722854614,-4.068565368652344,-1.6747961044311523
1707603318400768300,22.241768310546874,-0.9758751392364502,0.2137737274169922,0.815007209777832
1707603318419662000,22.260662109375,-3.7061948776245117,3.5962023735046387,3.218003273010254
1707603318438555600,22.2795556640625,-6.076340675354004,6.23994255065918,4.801743507385254
1707603318457449200,22.29844921875,-7.372596740722656,7.7501091957092285,4.123456954956055
1707603318476342800,22.3173427734375,-7.919290542602539,7.2655029296875,1.8132572174072266
1707603318495236600,22.336236572265626,-5.912688732147217,5.298059463500977,0.16640663146972656
1707603318514130200,22.355130126953124,-2.7040538787841797,2.7903900146484375,-0.9398994445800781
1707603318533024000,22.37402392578125,0.39361077547073364,-0.2637619972229004,-1.9101593494415283
1707603318551917600,22.39291748046875,3.383453369140625,-3.8066039085388184,-2.692781925201416
1707603318570811100,22.41181103515625,6.764186859130859,-7.041670799255371,-4.339533805847168
1707603318589704700,22.43070458984375,9.229369163513184,-9.15047836303711,-4.988790988922119
1707603318608598500,22.4495986328125,9.785808563232422,-10.359278678894043,-3.6133155822753906
1707603318627492000,22.4684921875,7.942850112915039,-9.751935005187988,-1.8251919746398926
1707603318646386000,22.487385986328125,3.385902166366577,-6.548839569091797,-1.4199590682983398
1707603318665279500,22.506279541015626,-1.6610347032546997,-1.6180877685546875,-1.8496081829071045
1707603318684173000,22.525173095703124,-5.66142463684082,3.5529026985168457,-0.13132762908935547
1707603318703066600,22.544066650390626,-8.2927827835083,6.633294582366943,3.3492751121520996
1707603318721960400,22.56296044921875,-9.613561630249023,7.444058895111084,5.349891185760498
1707603318740854000,22.58185400390625,-9.918712615966797,7.257296562194824,4.642728805541992
1707603318759747800,22.600747802734375,-7.9102888107299805,6.097621917724609,2.8268322944641113
1707603318778641400,22.619641357421877,-5.187485694885254,4.5370588302612305,0.8697690963745117
1707603318797535000,22.638534912109375,-2.5573110580444336,2.4685192108154297,-0.46191978454589844
1707603318816428800,22.6574287109375,-0.6236957311630249,-0.20633411407470703,-0.949669361114502
1707603318835322400,22.676322265625,1.4374737739562988,-3.096867561340332,-1.888658046722412
1707603318854216000,22.6952158203125,3.998016357421875,-5.968764305114746,-1.98362398147583
1707603318873109800,22.71410986328125,6.556544780731201,-8.620766639709473,-1.6241035461425781
1707603318892003300,22.73300341796875,8.257135391235352,-10.772123336791992,-0.8959183692932129
1707603318910897000,22.75189697265625,8.244654655456543,-11.011484146118164,0.5228662490844727
1707603318929790700,22.770790771484375,6.05782413482666,-9.422667503356934,1.5004510879516602
1707603318948684300,22.789684326171876,1.9790098667144775,-5.782121181488037,0.17116022109985352
1707603318967577900,22.808577880859374,-2.328601837158203,-0.8111929893493652,-1.2220580577850342
1707603318986471700,22.8274716796875,-6.526211738586426,3.919999122619629,0.005283355712890625
1707603319005365200,22.846365234375,-8.373285293579102,7.25430965423584,3.250174045562744
1707603319024258800,22.8652587890625,-10.426057815551758,8.538115501403809,4.963408946990967
1707603319043152600,22.884152587890625,-10.375343322753906,7.758810043334961,4.983333110809326
1707603319062046200,22.903046142578123,-9.199514389038086,5.428895950317383,2.7214159965515137
1707603319080939800,22.921939697265625,-6.16792631149292,3.021853446960449,0.521812915802002
1707603319099833600,22.94083349609375,-3.116805076599121,0.6609344482421875,-0.8933675289154053
1707603319118727200,22.95972705078125,0.14756111800670624,-2.6850528717041016,-1.6249842643737793
1707603319137620700,22.978620849609374,3.2623438835144043,-6.105219841003418,-1.267501711845398
1707603319156514600,22.9975146484375,5.634459018707275,-8.298158645629883,0.12699639797210693
1707603319175408000,23.016408203125,6.4258623123168945,-9.058454513549805,2.0070040225982666
1707603319194301700,23.0353017578125,5.847044467926025,-8.667815208435059,4.030734062194824
1707603319213195500,23.054195556640625,4.469769477844238,-7.26796817779541,3.9297356605529785
1707603319232089000,23.073089111328127,3.6382102966308594,-5.699695587158203,2.233224391937256
1707603319250983000,23.09198291015625,3.232678174972534,-3.2479705810546875,-1.2306232452392578
1707603319269876500,23.11087646484375,2.9813461303710938,-0.4031057357788086,-3.113191843032837
1707603319288770000,23.12977001953125,2.140286684036255,1.7500171661376953,-2.1794142723083496
1707603319307663600,23.14866357421875,-0.7069649696350098,3.1689443588256836,-1.022389531135559
1707603319326557400,23.167557373046876,-3.518808603286743,4.86729621887207,-1.6521151065826416
1707603319345451000,23.186450927734374,-6.190554618835449,5.72899055480957,-1.8023406267166138
1707603319364344800,23.2053447265625,-7.451976776123047,5.60740852355957,-1.7352187633514404
1707603319383238400,23.22423828125,-7.360838890075684,3.878432273864746,-0.8284425735473633
1707603319402132000,23.243132080078126,-6.049623489379883,1.313664436340332,0.44245633482933044
1707603319421025500,23.262025634765624,-3.8231616020202637,-1.0193262100219727,1.8443140983581543
1707603319439919400,23.28091943359375,-0.8405261039733887,-3.0042052268981934,2.966291904449463
1707603319458813000,23.29981298828125,1.4289478063583374,-3.9890241622924805,3.666214942932129
1707603319477706800,23.318706787109374,2.892180919647217,-4.328935146331787,4.817494869232178
1707603319496600300,23.337600341796875,2.8305983543395996,-4.492233753204346,5.561659812927246
1707603319515494000,23.356493896484373,2.088956356048584,-3.9913177490234375,4.877418518066406
1707603319534387500,23.375387451171875,1.2790073156356812,-2.6252193450927734,3.2788913249969482
1707603319553281300,23.39428125,1.2727861404418945,-0.84222412109375,1.9322731494903564
1707603319572174800,23.4131748046875,1.2023409605026245,-0.47165584564208984,2.2043440341949463
1707603319591068700,23.432068603515624,0.44965267181396484,-0.4385080337524414,0.8736298084259033
1707603319609962200,23.450962158203126,-0.607453465461731,0.741185188293457,-2.0204997062683105
1707603319628855800,23.469855712890624,-1.879996657371521,1.6301374435424805,-5.438204288482666
1707603319647749600,23.48874951171875,-2.2637364864349365,1.107121467590332,-6.721765995025635
1707603319666643200,23.507643310546875,-2.114417552947998,0.2603268623352051,-4.224612236022949
1707603319685536800,23.526536865234377,-1.0421944856643677,-0.8670406341552734,-1.6488418579101562
1707603319704430600,23.5454306640625,0.6091880202293396,-0.8052153587341309,-0.6909475326538086
1707603319723324200,23.56432421875,1.9150609970092773,-0.13001680374145508,0.44446468353271484
1707603319742217700,23.5832177734375,2.682931900024414,0.08257389068603516,2.1033825874328613
1707603319761111600,23.602111572265624,2.558454990386963,-0.10854053497314453,3.1878585815429688
1707603319780005000,23.621005126953126,1.4545726776123047,0.005808830261230469,4.324127197265625
1707603319798898700,23.639898681640624,0.7066938877105713,0.2687821388244629,4.955000877380371
1707603319817792500,23.65879248046875,0.19786906242370605,0.4067678451538086,6.234135150909424
1707603319836686000,23.67768603515625,-0.0637211799621582,0.7391157150268555,5.555293083190918
1707603319855579600,23.69657958984375,-1.1613117456436157,1.2416410446166992,2.6316614151000977
1707603319874473500,23.715473388671874,-2.1534712314605713,1.9114460945129395,-1.617645263671875
1707603319893367000,23.734366943359376,-2.1455578804016113,1.5091431140899658,-4.971713066101074
1707603319912260900,23.7532607421875,-1.6010112762451172,0.18131351470947266,-6.472827911376953
1707603319931154400,23.772154541015624,-0.7347657680511475,-0.802886962890625,-8.479538917541504
1707603319950048000,23.791048095703125,-0.6766130328178406,-1.7353978157043457,-9.138193130493164
1707603319968941800,23.80994189453125,-0.48594239354133606,-1.9638409614562988,-7.132828712463379
1707603319987835400,23.82883544921875,-0.9250670671463013,-1.388235330581665,-4.510846138000488
1707603320006729000,23.84772900390625,-1.5451369285583496,-0.9079186916351318,-2.7315673828125
1707603320025622800,23.866622802734376,-1.5325353145599365,-0.18305063247680664,-0.5875682830810547
1707603320044516400,23.885516357421874,-1.3558149337768555,-0.3681197166442871,3.7061586380004883
1707603320063410000,23.904409912109376,0.38492459058761597,-0.8597593307495117,7.656446933746338
1707603320082303700,23.9233037109375,2.205012083053589,-1.292905330657959,9.425817489624023
1707603320101197300,23.942197265625,4.429503440856934,-1.2452077865600586,9.373973846435547
1707603320120091000,23.9610908203125,6.725788593292236,-0.698575496673584,7.250129699707031
